Stagnation Pressure	Static Pressure	Stagnation Temperature	Manifold Pressure	Tank Pressure	Mach Number	Velocity	Static Temperature	Mass Flow	Static Density	Reynold's Number
psia	psia	degF	psig	psig	N/A	m/s	degF	kg/s	kg/m^3	N/A
14.221	14.276	89.787	13.645	-299.999	0.000	0.000	89.787	0.000	1.127	0.000
14.207	14.277	89.799	13.597	-300.017	0.000	0.000	89.799	0.000	1.127	0.000
14.205	14.276	89.781	13.611	-300.038	0.000	0.000	89.781	0.000	1.127	0.000
14.206	14.277	89.783	13.590	-300.010	0.000	0.000	89.783	0.000	1.128	0.000
14.212	14.278	89.749	13.583	-299.928	0.000	0.000	89.749	0.000	1.128	0.000
14.197	14.277	89.739	13.567	-300.020	0.000	0.000	89.739	0.000	1.128	0.000
14.211	14.277	89.746	13.546	-300.075	0.000	0.000	89.746	0.000	1.128	0.000
14.196	14.277	89.561	13.539	-299.984	0.000	0.000	89.561	0.000	1.128	0.000
14.201	14.278	89.637	13.513	-300.011	0.000	0.000	89.637	0.000	1.128	0.000
14.201	14.277	89.671	13.512	-300.046	0.000	0.000	89.671	0.000	1.128	0.000
14.203	14.278	89.670	13.495	-300.029	0.000	0.000	89.670	0.000	1.128	0.000
14.203	14.277	89.670	13.479	-300.084	0.000	0.000	89.670	0.000	1.128	0.000
14.203	14.276	89.662	13.466	-300.161	0.000	0.000	89.662	0.000	1.128	0.000
14.195	14.277	89.658	13.459	-300.021	0.000	0.000	89.658	0.000	1.128	0.000
14.204	14.277	89.653	13.444	-300.032	0.000	0.000	89.653	0.000	1.128	0.000
14.204	14.277	89.653	13.427	-300.037	0.000	0.000	89.653	0.000	1.128	0.000
14.212	14.278	89.503	13.414	-300.027	0.000	0.000	89.503	0.000	1.128	0.000
14.206	14.280	89.509	13.358	-300.057	0.000	0.000	89.509	0.000	1.128	0.000
14.210	14.279	89.602	13.247	-300.104	0.000	0.000	89.602	0.000	1.128	0.000
14.204	14.276	89.492	13.102	-300.188	0.000	0.000	89.492	0.000	1.128	0.000
14.198	14.278	89.583	12.951	-300.229	0.000	0.000	89.583	0.000	1.128	0.000
14.213	14.277	89.562	12.812	-300.204	0.000	0.000	89.562	0.000	1.128	0.000
14.205	14.278	89.632	12.668	-300.214	0.000	0.000	89.632	0.000	1.128	0.000
14.199	14.277	89.511	12.531	-300.189	0.000	0.000	89.511	0.000	1.128	0.000
14.208	14.277	89.621	12.390	-300.348	0.000	0.000	89.621	0.000	1.128	0.000
14.209	14.277	89.682	12.254	-300.329	0.000	0.000	89.682	0.000	1.128	0.000
14.200	14.277	89.709	12.100	-300.432	0.000	0.000	89.709	0.000	1.128	0.000
14.200	14.276	89.729	11.936	-300.426	0.000	0.000	89.729	0.000	1.128	0.000
14.202	14.278	89.735	11.773	-300.486	0.000	0.000	89.735	0.000	1.128	0.000
14.201	14.278	89.733	11.593	-300.441	0.000	0.000	89.733	0.000	1.128	0.000
14.207	14.278	89.734	11.393	-300.569	0.000	0.000	89.734	0.000	1.128	0.000
14.204	14.277	89.738	11.141	-300.668	0.000	0.000	89.738	0.000	1.128	0.000
14.207	14.278	89.739	10.868	-300.728	0.000	0.000	89.739	0.000	1.128	0.000
14.210	14.278	89.579	10.543	-300.753	0.000	0.000	89.579	0.000	1.128	0.000
14.217	14.278	89.614	10.157	-300.845	0.000	0.000	89.614	0.000	1.128	0.000
14.214	14.278	89.692	9.723	-301.017	0.000	0.000	89.692	0.000	1.128	0.000
14.217	14.278	89.727	9.215	-301.113	0.000	0.000	89.727	0.000	1.128	0.000
14.213	14.277	89.588	8.655	-301.178	0.000	0.000	89.588	0.000	1.128	0.000
14.216	14.277	89.696	8.004	-301.390	0.000	0.000	89.696	0.000	1.128	0.000
14.222	14.275	89.808	7.268	-301.497	0.000	0.000	89.808	0.000	1.127	0.000
14.221	14.273	89.830	6.479	-301.601	0.000	0.000	89.830	0.000	1.127	0.000
14.227	14.272	89.862	5.630	-301.744	0.000	0.000	89.862	0.000	1.127	0.000
14.224	14.271	89.715	4.743	-301.896	0.000	0.000	89.715	0.000	1.127	0.000
14.230	14.269	89.842	3.831	-302.020	0.000	0.000	89.842	0.000	1.127	0.000
14.218	14.266	89.918	2.927	-302.098	0.000	0.000	89.918	0.000	1.126	0.000
14.223	14.266	89.947	2.079	-302.149	0.000	0.000	89.947	0.000	1.126	0.000
14.210	14.266	89.895	1.298	-302.189	0.000	0.000	89.895	0.000	1.126	0.000
14.203	14.265	89.942	0.644	-302.214	0.000	0.000	89.942	0.000	1.126	0.000
14.196	14.264	89.857	0.189	-302.219	0.000	0.000	89.857	0.000	1.126	0.000
14.194	14.267	89.705	-0.034	-302.219	0.000	0.000	89.705	0.000	1.127	0.000
14.205	14.275	89.735	-0.057	-302.203	0.000	0.000	89.735	0.000	1.127	0.000
14.196	14.279	89.845	-0.045	-302.211	0.000	0.000	89.845	0.000	1.128	0.000
14.204	14.275	89.859	-0.054	-302.183	0.000	0.000	89.859	0.000	1.127	0.000
14.217	14.278	89.843	-0.050	-302.169	0.000	0.000	89.843	0.000	1.127	0.000
14.222	14.277	89.645	-0.051	-302.156	0.000	0.000	89.645	0.000	1.128	0.000
14.212	14.276	89.727	-0.058	-302.161	0.000	0.000	89.727	0.000	1.128	0.000
14.201	14.277	89.752	-0.051	-302.184	0.000	0.000	89.752	0.000	1.128	0.000
14.213	14.277	89.733	-0.050	-302.168	0.000	0.000	89.733	0.000	1.128	0.000
14.200	14.276	89.569	-0.056	-302.178	0.000	0.000	89.569	0.000	1.128	0.000
14.211	14.277	89.640	-0.053	-302.177	0.000	0.000	89.640	0.000	1.128	0.000
14.210	14.278	89.665	-0.052	-302.191	0.000	0.000	89.665	0.000	1.128	0.000
14.203	14.276	89.672	-0.059	-302.189	0.000	0.000	89.672	0.000	1.128	0.000
14.211	14.278	89.668	-0.056	-302.163	0.000	0.000	89.668	0.000	1.128	0.000
14.205	14.277	89.650	-0.056	-302.171	0.000	0.000	89.650	0.000	1.128	0.000
14.210	14.277	89.342	-0.057	-302.189	0.000	0.000	89.342	0.000	1.128	0.000
14.208	14.278	89.369	-0.054	-302.177	0.000	0.000	89.369	0.000	1.128	0.000
14.212	14.276	89.501	-0.057	-302.176	0.000	0.000	89.501	0.000	1.128	0.000
14.211	14.277	89.540	-0.053	-302.175	0.000	0.000	89.540	0.000	1.128	0.000
14.208	14.276	89.571	-0.056	-302.178	0.000	0.000	89.571	0.000	1.128	0.000
14.214	14.276	89.565	-0.057	-302.164	0.000	0.000	89.565	0.000	1.128	0.000
14.208	14.278	89.556	-0.056	-302.180	0.000	0.000	89.556	0.000	1.128	0.000
14.210	14.277	89.517	-0.056	-302.170	0.000	0.000	89.517	0.000	1.128	0.000
14.215	14.278	89.368	-0.060	-302.155	0.000	0.000	89.368	0.000	1.128	0.000
14.208	14.277	89.432	-0.053	-302.188	0.000	0.000	89.432	0.000	1.128	0.000
14.191	14.277	89.456	-0.056	-302.170	0.000	0.000	89.456	0.000	1.128	0.000
14.203	14.277	89.442	-0.059	-302.164	0.000	0.000	89.442	0.000	1.128	0.000
14.196	14.277	89.458	-0.059	-302.138	0.000	0.000	89.458	0.000	1.128	0.000
14.207	14.277	89.449	-0.061	-302.175	0.000	0.000	89.449	0.000	1.128	0.000
14.200	14.278	89.328	-0.056	-302.184	0.000	0.000	89.328	0.000	1.129	0.000
14.214	14.277	89.336	-0.060	-302.149	0.000	0.000	89.336	0.000	1.128	0.000
14.196	14.277	89.240	-0.058	-302.173	0.000	0.000	89.240	0.000	1.129	0.000
14.211	14.278	89.304	-0.056	-302.157	0.000	0.000	89.304	0.000	1.129	0.000
14.210	14.277	89.377	-0.055	-302.174	0.000	0.000	89.377	0.000	1.128	0.000
14.206	14.277	89.413	-0.056	-302.169	0.000	0.000	89.413	0.000	1.128	0.000
14.215	14.278	89.428	-0.058	-302.174	0.000	0.000	89.428	0.000	1.128	0.000
14.208	14.278	89.432	-0.054	-302.162	0.000	0.000	89.432	0.000	1.128	0.000
14.206	14.276	89.435	-0.063	-302.175	0.000	0.000	89.435	0.000	1.128	0.000
14.210	14.277	89.424	-0.060	-302.161	0.000	0.000	89.424	0.000	1.128	0.000
14.213	14.276	89.359	-0.062	-302.165	0.000	0.000	89.359	0.000	1.128	0.000
14.208	14.277	89.233	-0.053	-302.169	0.000	0.000	89.233	0.000	1.129	0.000
14.202	14.278	89.295	-0.056	-302.177	0.000	0.000	89.295	0.000	1.129	0.000
14.205	14.276	89.316	-0.053	-302.182	0.000	0.000	89.316	0.000	1.128	0.000
14.216	14.277	89.280	-0.061	-302.178	0.000	0.000	89.280	0.000	1.129	0.000
14.202	14.278	89.269	-0.058	-302.181	0.000	0.000	89.269	0.000	1.129	0.000
14.205	14.277	89.349	-0.049	-302.175	0.000	0.000	89.349	0.000	1.128	0.000
14.206	14.277	89.367	-0.056	-302.146	0.000	0.000	89.367	0.000	1.128	0.000
14.204	14.277	89.381	-0.051	-302.170	0.000	0.000	89.381	0.000	1.128	0.000
14.198	14.277	89.383	-0.061	-302.166	0.000	0.000	89.383	0.000	1.128	0.000
14.203	14.277	89.377	-0.055	-302.171	0.000	0.000	89.377	0.000	1.128	0.000
14.211	14.277	89.366	-0.054	-302.187	0.000	0.000	89.366	0.000	1.128	0.000
14.204	14.278	89.385	-0.058	-302.163	0.000	0.000	89.385	0.000	1.128	0.000
14.205	14.277	89.375	-0.053	-302.193	0.000	0.000	89.375	0.000	1.128	0.000
14.204	14.278	89.367	-0.059	-302.175	0.000	0.000	89.367	0.000	1.128	0.000
14.206	14.277	89.371	-0.055	-302.145	0.000	0.000	89.371	0.000	1.128	0.000
14.214	14.277	89.369	-0.057	-302.166	0.000	0.000	89.369	0.000	1.128	0.000
14.210	14.277	89.352	-0.056	-302.154	0.000	0.000	89.352	0.000	1.128	0.000
14.200	14.278	89.360	-0.055	-302.154	0.000	0.000	89.360	0.000	1.128	0.000
14.216	14.277	89.357	-0.057	-302.144	0.000	0.000	89.357	0.000	1.128	0.000
14.204	14.277	89.327	-0.055	-302.170	0.000	0.000	89.327	0.000	1.128	0.000
14.203	14.277	89.346	-0.054	-302.174	0.000	0.000	89.346	0.000	1.128	0.000
14.214	14.277	89.350	-0.052	-302.184	0.000	0.000	89.350	0.000	1.128	0.000
14.215	14.276	89.209	-0.054	-302.173	0.000	0.000	89.209	0.000	1.129	0.000
14.209	14.277	89.232	-0.055	-302.172	0.000	0.000	89.232	0.000	1.129	0.000
14.208	14.276	89.122	-0.055	-302.173	0.000	0.000	89.122	0.000	1.129	0.000
14.202	14.277	89.185	-0.051	-302.164	0.000	0.000	89.185	0.000	1.129	0.000
14.205	14.277	89.229	-0.052	-302.182	0.000	0.000	89.229	0.000	1.129	0.000
14.213	14.277	89.231	-0.055	-302.154	0.000	0.000	89.231	0.000	1.129	0.000
14.207	14.277	89.172	-0.053	-302.180	0.000	0.000	89.172	0.000	1.129	0.000
14.208	14.277	89.056	-0.060	-302.175	0.000	0.000	89.056	0.000	1.129	0.000
14.212	14.277	89.131	-0.058	-302.148	0.000	0.000	89.131	0.000	1.129	0.000
14.212	14.277	89.168	-0.058	-302.171	0.000	0.000	89.168	0.000	1.129	0.000
14.210	14.278	89.193	-0.061	-302.146	0.000	0.000	89.193	0.000	1.129	0.000
14.208	14.277	89.209	-0.055	-302.180	0.000	0.000	89.209	0.000	1.129	0.000
14.204	14.278	89.214	-0.055	-302.172	0.000	0.000	89.214	0.000	1.129	0.000
14.209	14.277	89.210	-0.057	-302.173	0.000	0.000	89.210	0.000	1.129	0.000
14.203	14.277	89.207	-0.060	-302.180	0.000	0.000	89.207	0.000	1.129	0.000
14.208	14.278	89.193	-0.055	-302.169	0.000	0.000	89.193	0.000	1.129	0.000
14.210	14.277	89.041	-0.054	-302.171	0.000	0.000	89.041	0.000	1.129	0.000
14.206	14.277	89.108	-0.055	-302.178	0.000	0.000	89.108	0.000	1.129	0.000
14.211	14.277	89.156	-0.053	-302.183	0.000	0.000	89.156	0.000	1.129	0.000
14.208	14.277	89.190	-0.055	-302.169	0.000	0.000	89.190	0.000	1.129	0.000
14.209	14.277	89.201	-0.052	-302.167	0.000	0.000	89.201	0.000	1.129	0.000
14.202	14.277	89.045	-0.058	-302.164	0.000	0.000	89.045	0.000	1.129	0.000
14.211	14.277	89.132	-0.054	-302.160	0.000	0.000	89.132	0.000	1.129	0.000
14.203	14.277	89.095	-0.055	-302.174	0.000	0.000	89.095	0.000	1.129	0.000
14.202	14.277	89.168	-0.053	-302.176	0.000	0.000	89.168	0.000	1.129	0.000
14.211	14.276	89.171	-0.054	-302.169	0.000	0.000	89.171	0.000	1.129	0.000
14.208	14.278	89.174	-0.057	-302.170	0.000	0.000	89.174	0.000	1.129	0.000
14.207	14.278	89.174	-0.057	-302.186	0.000	0.000	89.174	0.000	1.129	0.000
14.205	14.277	89.160	-0.057	-302.161	0.000	0.000	89.160	0.000	1.129	0.000
14.205	14.277	89.246	-0.053	-302.173	0.000	0.000	89.246	0.000	1.129	0.000
14.199	14.277	89.164	-0.056	-302.176	0.000	0.000	89.164	0.000	1.129	0.000
14.210	14.277	89.238	-0.059	-302.168	0.000	0.000	89.238	0.000	1.129	0.000
14.215	14.278	89.115	-0.057	-302.164	0.000	0.000	89.115	0.000	1.129	0.000
14.202	14.277	89.250	-0.055	-302.172	0.000	0.000	89.250	0.000	1.129	0.000
14.211	14.278	89.178	-0.058	-302.175	0.000	0.000	89.178	0.000	1.129	0.000
14.202	14.277	89.280	-0.056	-302.189	0.000	0.000	89.280	0.000	1.129	0.000
14.210	14.278	89.226	-0.054	-302.164	0.000	0.000	89.226	0.000	1.129	0.000
14.214	14.277	89.340	-0.057	-302.194	0.000	0.000	89.340	0.000	1.128	0.000
14.202	14.277	89.421	-0.056	-302.160	0.000	0.000	89.421	0.000	1.128	0.000
14.211	14.278	89.456	-0.056	-302.164	0.000	0.000	89.456	0.000	1.128	0.000
14.224	14.288	89.475	-0.013	-302.165	0.000	0.000	89.475	0.000	1.129	0.000
14.213	14.283	89.507	0.025	-302.186	0.000	0.000	89.507	0.000	1.129	0.000
14.214	14.278	89.409	0.056	-302.177	0.000	0.000	89.409	0.000	1.128	0.000
14.226	14.279	89.390	0.104	-302.183	0.000	0.000	89.390	0.000	1.128	0.000
14.227	14.276	89.470	0.133	-302.166	0.000	0.000	89.470	0.000	1.128	0.000
14.214	14.274	89.336	0.160	-302.175	0.000	0.000	89.336	0.000	1.128	0.000
14.217	14.274	89.385	0.167	-302.172	0.000	0.000	89.385	0.000	1.128	0.000
14.217	14.271	89.284	0.175	-302.179	0.000	0.000	89.284	0.000	1.128	0.000
14.226	14.273	89.370	0.185	-302.173	0.000	0.000	89.370	0.000	1.128	0.000
14.229	14.274	89.459	0.197	-302.140	0.000	0.000	89.459	0.000	1.128	0.000
14.222	14.272	89.505	0.204	-302.150	0.000	0.000	89.505	0.000	1.128	0.000
14.219	14.272	89.503	0.207	-302.163	0.000	0.000	89.503	0.000	1.128	0.000
14.220	14.272	89.359	0.208	-302.146	0.000	0.000	89.359	0.000	1.128	0.000
14.222	14.273	89.468	0.207	-302.134	0.000	0.000	89.468	0.000	1.128	0.000
14.223	14.273	89.465	0.213	-302.172	0.000	0.000	89.465	0.000	1.128	0.000
14.215	14.272	89.440	0.217	-302.156	0.000	0.000	89.440	0.000	1.128	0.000
14.223	14.271	89.579	0.213	-302.160	0.000	0.000	89.579	0.000	1.127	0.000
14.212	14.272	89.549	0.220	-302.148	0.000	0.000	89.549	0.000	1.128	0.000
14.220	14.271	89.623	0.217	-302.134	0.000	0.000	89.623	0.000	1.127	0.000
14.234	14.271	89.759	0.220	-302.144	0.000	0.000	89.759	0.000	1.127	0.000
14.213	14.272	89.880	0.217	-302.163	0.000	0.000	89.880	0.000	1.127	0.000
14.217	14.272	89.937	0.217	-302.119	0.000	0.000	89.937	0.000	1.127	0.000
14.228	14.273	90.052	0.217	-302.147	0.000	0.000	90.052	0.000	1.127	0.000
14.225	14.272	90.105	0.215	-302.157	0.000	0.000	90.105	0.000	1.126	0.000
14.216	14.270	90.141	0.198	-302.158	0.000	0.000	90.141	0.000	1.126	0.000
14.217	14.269	90.196	0.162	-302.147	0.000	0.000	90.196	0.000	1.126	0.000
14.221	14.271	90.243	0.128	-302.161	0.000	0.000	90.243	0.000	1.126	0.000
14.221	14.272	90.322	0.101	-302.150	0.000	0.000	90.322	0.000	1.126	0.000
14.214	14.273	90.408	0.070	-302.145	0.000	0.000	90.408	0.000	1.126	0.000
14.200	14.272	90.404	0.045	-302.178	0.000	0.000	90.404	0.000	1.126	0.000
14.207	14.273	90.391	0.025	-302.180	0.000	0.000	90.391	0.000	1.126	0.000
14.211	14.275	90.530	0.015	-302.161	0.000	0.000	90.530	0.000	1.126	0.000
14.203	14.274	90.527	0.006	-302.161	0.000	0.000	90.527	0.000	1.126	0.000
14.209	14.275	90.579	-0.003	-302.169	0.000	0.000	90.579	0.000	1.126	0.000
14.213	14.276	90.715	-0.005	-302.155	0.000	0.000	90.715	0.000	1.126	0.000
14.214	14.275	90.822	-0.008	-302.174	0.000	0.000	90.822	0.000	1.125	0.000
14.204	14.275	90.914	-0.012	-302.172	0.000	0.000	90.914	0.000	1.125	0.000
14.209	14.276	90.985	-0.020	-302.180	0.000	0.000	90.985	0.000	1.125	0.000
14.212	14.277	90.915	-0.027	-302.153	0.000	0.000	90.915	0.000	1.125	0.000
14.211	14.276	91.041	-0.027	-302.176	0.000	0.000	91.041	0.000	1.125	0.000
14.203	14.277	91.146	-0.028	-302.163	0.000	0.000	91.146	0.000	1.125	0.000
14.204	14.277	91.028	-0.034	-302.186	0.000	0.000	91.028	0.000	1.125	0.000
14.200	14.277	91.164	-0.037	-302.178	0.000	0.000	91.164	0.000	1.125	0.000
14.207	14.276	91.271	-0.032	-302.166	0.000	0.000	91.271	0.000	1.124	0.000
14.211	14.277	91.321	-0.037	-302.162	0.000	0.000	91.321	0.000	1.124	0.000
14.215	14.276	91.294	-0.034	-302.171	0.000	0.000	91.294	0.000	1.124	0.000
14.199	14.277	91.304	-0.040	-302.145	0.000	0.000	91.304	0.000	1.124	0.000
14.206	14.277	91.279	-0.047	-302.169	0.000	0.000	91.279	0.000	1.124	0.000
14.208	14.276	91.411	-0.041	-302.178	0.000	0.000	91.411	0.000	1.124	0.000
14.212	14.276	91.468	-0.045	-302.169	0.000	0.000	91.468	0.000	1.124	0.000
14.209	14.277	91.518	-0.051	-302.165	0.000	0.000	91.518	0.000	1.124	0.000
14.211	14.277	91.422	-0.046	-302.178	0.000	0.000	91.422	0.000	1.124	0.000
14.203	14.278	91.344	-0.047	-302.173	0.000	0.000	91.344	0.000	1.124	0.000
14.211	14.277	91.300	-0.051	-302.153	0.000	0.000	91.300	0.000	1.124	0.000
14.203	14.277	91.440	-0.047	-302.197	0.000	0.000	91.440	0.000	1.124	0.000
14.213	14.278	91.551	-0.048	-302.192	0.000	0.000	91.551	0.000	1.124	0.000
14.200	14.278	91.619	-0.048	-302.180	0.000	0.000	91.619	0.000	1.124	0.000
14.198	14.277	91.664	-0.051	-302.180	0.000	0.000	91.664	0.000	1.124	0.000
14.206	14.277	91.497	-0.049	-302.172	0.000	0.000	91.497	0.000	1.124	0.000
14.210	14.276	91.670	-0.048	-302.181	0.000	0.000	91.670	0.000	1.124	0.000
14.197	14.276	91.771	-0.056	-302.165	0.000	0.000	91.771	0.000	1.123	0.000
14.214	14.277	91.799	-0.053	-302.168	0.000	0.000	91.799	0.000	1.123	0.000
14.205	14.278	91.682	-0.055	-302.171	0.000	0.000	91.682	0.000	1.124	0.000
14.218	14.282	91.694	-0.032	-302.182	0.000	0.000	91.694	0.000	1.124	0.000
14.220	14.285	91.807	-0.004	-302.150	0.000	0.000	91.807	0.000	1.124	0.000
14.219	14.281	91.868	0.058	-302.169	0.000	0.000	91.868	0.000	1.124	0.000
14.224	14.281	91.907	0.128	-302.144	0.000	0.000	91.907	0.000	1.123	0.000
14.217	14.275	91.959	0.175	-302.141	0.000	0.000	91.959	0.000	1.123	0.000
14.217	14.272	91.978	0.182	-302.155	0.000	0.000	91.978	0.000	1.123	0.000
14.217	14.273	91.835	0.178	-302.170	0.000	0.000	91.835	0.000	1.123	0.000
14.226	14.272	91.903	0.195	-302.145	0.000	0.000	91.903	0.000	1.123	0.000
14.220	14.273	91.989	0.205	-302.157	0.000	0.000	91.989	0.000	1.123	0.000
14.228	14.271	92.062	0.210	-302.151	0.000	0.000	92.062	0.000	1.122	0.000
14.223	14.271	92.116	0.211	-302.151	0.000	0.000	92.116	0.000	1.122	0.000
14.230	14.272	91.958	0.219	-302.169	0.000	0.000	91.958	0.000	1.123	0.000
14.217	14.271	92.101	0.224	-302.159	0.000	0.000	92.101	0.000	1.122	0.000
14.225	14.271	92.171	0.232	-302.169	0.000	0.000	92.171	0.000	1.122	0.000
14.217	14.272	92.108	0.228	-302.156	0.000	0.000	92.108	0.000	1.122	0.000
14.218	14.271	92.262	0.233	-302.142	0.000	0.000	92.262	0.000	1.122	0.000
14.221	14.272	92.353	0.242	-302.158	0.000	0.000	92.353	0.000	1.122	0.000
14.222	14.270	92.359	0.240	-302.153	0.000	0.000	92.359	0.000	1.122	0.000
14.225	14.272	92.367	0.235	-302.162	0.000	0.000	92.367	0.000	1.122	0.000
14.217	14.272	92.425	0.237	-302.172	0.000	0.000	92.425	0.000	1.122	0.000
14.218	14.270	92.526	0.249	-302.159	0.000	0.000	92.526	0.000	1.121	0.000
14.220	14.270	92.693	0.238	-302.135	0.000	0.000	92.693	0.000	1.121	0.000
14.223	14.272	92.661	0.249	-302.140	0.000	0.000	92.661	0.000	1.121	0.000
14.222	14.272	92.777	0.244	-302.165	0.000	0.000	92.777	0.000	1.121	0.000
14.219	14.271	92.931	0.246	-302.165	0.000	0.000	92.931	0.000	1.121	0.000
14.217	14.270	93.052	0.242	-302.152	0.000	0.000	93.052	0.000	1.120	0.000
14.218	14.272	93.151	0.237	-302.154	0.000	0.000	93.151	0.000	1.120	0.000
14.213	14.271	93.241	0.245	-302.167	0.000	0.000	93.241	0.000	1.120	0.000
14.222	14.271	93.294	0.243	-302.172	0.000	0.000	93.294	0.000	1.120	0.000
14.233	14.270	93.366	0.248	-302.154	0.000	0.000	93.366	0.000	1.120	0.000
14.213	14.271	93.431	0.245	-302.151	0.000	0.000	93.431	0.000	1.120	0.000
14.224	14.271	93.505	0.243	-302.147	0.000	0.000	93.505	0.000	1.119	0.000
14.215	14.272	93.478	0.246	-302.164	0.000	0.000	93.478	0.000	1.120	0.000
14.236	14.270	93.507	0.244	-302.152	0.000	0.000	93.507	0.000	1.119	0.000
14.222	14.271	93.681	0.242	-302.158	0.000	0.000	93.681	0.000	1.119	0.000
14.220	14.270	93.813	0.240	-302.115	0.000	0.000	93.813	0.000	1.119	0.000
14.217	14.270	93.986	0.239	-302.177	0.000	0.000	93.986	0.000	1.118	0.000
14.222	14.271	94.064	0.238	-302.133	0.000	0.000	94.064	0.000	1.118	0.000
14.217	14.270	94.128	0.245	-302.156	0.000	0.000	94.128	0.000	1.118	0.000
14.219	14.272	94.203	0.243	-302.178	0.000	0.000	94.203	0.000	1.118	0.000
14.216	14.271	94.273	0.242	-302.120	0.000	0.000	94.273	0.000	1.118	0.000
14.218	14.271	94.336	0.241	-302.142	0.000	0.000	94.336	0.000	1.118	0.000
14.231	14.271	94.424	0.242	-302.148	0.000	0.000	94.424	0.000	1.118	0.000
14.225	14.271	94.505	0.242	-302.185	0.000	0.000	94.505	0.000	1.117	0.000
14.221	14.271	94.610	0.240	-302.155	0.000	0.000	94.610	0.000	1.117	0.000
14.226	14.271	94.685	0.243	-302.153	0.000	0.000	94.685	0.000	1.117	0.000
14.215	14.271	94.750	0.242	-302.156	0.000	0.000	94.750	0.000	1.117	0.000
14.224	14.270	94.823	0.245	-302.153	0.000	0.000	94.823	0.000	1.117	0.000
14.213	14.271	94.894	0.243	-302.141	0.000	0.000	94.894	0.000	1.117	0.000
14.219	14.272	94.991	0.251	-302.147	0.000	0.000	94.991	0.000	1.117	0.000
14.220	14.271	95.062	0.241	-302.153	0.000	0.000	95.062	0.000	1.116	0.000
14.223	14.270	95.157	0.243	-302.164	0.000	0.000	95.157	0.000	1.116	0.000
14.220	14.271	95.228	0.238	-302.170	0.000	0.000	95.228	0.000	1.116	0.000
14.225	14.271	95.092	0.243	-302.152	0.000	0.000	95.092	0.000	1.116	0.000
14.225	14.270	95.197	0.244	-302.133	0.000	0.000	95.197	0.000	1.116	0.000
14.225	14.271	95.307	0.256	-302.156	0.000	0.000	95.307	0.000	1.116	0.000
14.220	14.271	95.372	0.254	-302.152	0.000	0.000	95.372	0.000	1.116	0.000
14.225	14.273	95.442	0.284	-302.163	0.000	0.000	95.442	0.000	1.116	0.000
14.232	14.274	95.482	0.406	-302.119	0.000	0.000	95.482	0.000	1.116	0.000
14.257	14.276	95.408	0.574	-302.110	0.000	0.000	95.408	0.000	1.116	0.000
14.307	14.257	95.501	1.486	-302.016	0.070	24.755	94.950	0.668	1.115	701559.285
14.359	14.231	95.485	2.704	-301.788	0.113	39.801	94.060	1.074	1.115	1137382.294
14.389	14.197	95.566	3.499	-301.587	0.139	48.724	93.431	1.313	1.114	1399148.022
14.396	14.164	95.632	4.167	-301.583	0.153	53.506	93.058	1.440	1.112	1539569.033
14.419	14.156	95.796	4.553	-301.576	0.162	56.892	92.886	1.531	1.112	1639425.612
14.438	14.143	95.820	4.873	-301.512	0.172	60.212	92.560	1.619	1.111	1740069.428
14.438	14.132	95.939	5.105	-301.536	0.175	61.414	92.548	1.650	1.110	1773656.990
14.446	14.124	96.086	5.383	-301.490	0.180	63.049	92.512	1.693	1.110	1820560.182
14.481	14.108	96.258	5.824	-301.459	0.193	67.764	92.130	1.819	1.109	1963370.347
14.501	14.092	96.473	6.351	-301.348	0.203	70.990	91.942	1.904	1.109	2059035.743
14.531	14.081	96.645	6.695	-301.222	0.212	74.382	91.671	1.995	1.108	2162640.199
14.545	14.076	96.635	6.992	-301.198	0.217	75.979	91.445	2.038	1.108	2214202.943
14.547	14.059	96.855	7.269	-301.158	0.221	77.533	91.450	2.077	1.107	2256620.446
14.572	14.049	97.046	7.512	-301.141	0.229	80.214	91.261	2.148	1.107	2338331.267
14.571	14.038	97.233	7.728	-301.163	0.231	80.976	91.337	2.166	1.106	2356493.923
14.596	14.028	97.397	8.152	-300.955	0.239	83.589	91.115	2.236	1.105	2437224.200
14.633	14.006	97.561	8.727	-300.854	0.251	87.776	90.633	2.346	1.104	2570033.230
14.676	13.981	97.770	9.343	-300.698	0.264	92.391	90.095	2.467	1.104	2717972.169
14.704	13.970	97.992	9.766	-300.592	0.272	94.971	89.883	2.535	1.103	2798747.748
14.726	13.961	98.181	10.195	-300.530	0.277	96.856	89.746	2.585	1.103	2857283.360
14.758	13.939	98.376	10.584	-300.454	0.287	100.178	89.353	2.671	1.102	2964813.554
14.775	13.933	98.571	10.875	-300.410	0.291	101.594	89.291	2.708	1.101	3007581.621
14.793	13.913	98.775	11.192	-300.337	0.297	103.844	89.079	2.765	1.100	3077896.921
14.824	13.892	98.969	11.693	-300.211	0.306	106.910	88.693	2.844	1.099	3178853.936
14.861	13.849	99.009	12.404	-300.049	0.319	111.346	87.862	2.957	1.098	3334669.002
14.918	13.819	99.122	13.130	-299.913	0.333	115.971	87.030	3.078	1.097	3501975.158
14.960	13.782	99.308	13.855	-299.657	0.344	119.991	86.363	3.180	1.095	3644454.441
15.024	13.761	99.693	14.444	-299.555	0.356	124.149	85.835	3.289	1.095	3790463.309
15.040	13.718	99.960	15.007	-299.488	0.365	127.065	85.443	3.358	1.092	3886893.241
15.095	13.697	100.174	15.528	-299.440	0.375	130.583	84.843	3.449	1.092	4019385.280
15.133	13.664	100.345	15.994	-299.220	0.385	133.794	84.250	3.530	1.090	4140255.193
15.205	13.625	100.537	16.792	-299.071	0.399	138.640	83.255	3.654	1.089	4334528.907
15.300	13.581	100.702	17.804	-298.775	0.416	144.450	81.942	3.804	1.088	4581357.805
15.392	13.526	100.922	18.706	-298.598	0.434	150.348	80.599	3.953	1.086	4837014.887
15.500	13.478	101.141	19.628	-298.377	0.451	156.258	79.188	4.104	1.085	5108973.720
15.578	13.409	101.428	20.396	-298.252	0.468	161.777	77.897	4.238	1.082	5359907.711
15.672	13.383	101.516	21.049	-298.078	0.480	165.929	76.762	4.347	1.083	5577936.756
15.802	13.339	101.868	21.721	-298.002	0.498	171.822	75.324	4.499	1.082	5880573.952
15.995	13.305	102.289	22.460	-297.906	0.520	178.991	73.484	4.691	1.083	6283501.507
16.324	13.268	102.698	23.262	-297.656	0.552	189.643	70.362	4.985	1.086	6974935.699
16.694	13.221	103.058	24.123	-297.440	0.587	200.850	66.788	5.297	1.090	7814336.218
17.071	13.094	103.149	24.995	-297.272	0.627	213.744	62.072	5.633	1.089	8965476.661
17.397	12.957	103.347	25.669	-297.061	0.663	224.879	57.879	5.912	1.086	10132271.713
17.682	12.917	103.803	26.379	-296.977	0.685	231.900	55.452	6.106	1.088	10958965.228
18.052	12.807	104.171	27.185	-296.800	0.718	242.043	51.497	6.368	1.087	12391490.608
18.351	12.715	104.472	27.788	-296.670	0.743	249.898	48.324	6.568	1.086	13716975.518
18.604	12.616	104.709	28.392	-296.532	0.766	256.772	45.430	6.735	1.084	15081677.758
18.875	12.508	104.911	28.945	-296.393	0.790	263.916	42.288	6.906	1.081	16790263.882
19.106	12.445	105.118	29.496	-296.346	0.807	269.082	40.018	7.038	1.081	18245803.269
19.383	12.246	105.330	30.104	-296.253	0.837	277.966	35.861	7.214	1.072	21297379.190
19.622	12.113	105.566	30.657	-296.101	0.860	284.487	32.800	7.348	1.067	24163830.608
19.883	11.830	105.868	31.244	-296.037	0.894	294.481	27.899	7.503	1.053	30138915.583
20.108	11.848	106.142	31.761	-295.915	0.903	297.115	26.772	7.599	1.057	32146739.398
20.381	11.693	106.348	32.338	-295.783	0.927	303.987	23.264	7.729	1.051	39106798.663
20.639	11.571	106.437	32.931	-295.691	0.948	309.748	20.174	7.844	1.046	47768134.377
20.811	11.433	106.723	33.350	-295.579	0.966	314.784	17.632	7.918	1.039	57621687.047
21.008	11.315	106.921	33.829	-295.526	0.983	319.561	15.105	7.998	1.034	71647197.679
21.272	11.151	106.986	34.384	-295.445	1.007	325.893	11.496	8.099	1.027	105500097.399
21.494	11.024	107.084	34.912	-295.286	1.025	330.871	8.655	8.179	1.021	158528488.646
21.729	10.925	107.398	35.417	-295.196	1.042	335.397	6.258	8.259	1.017	254065585.274
21.928	10.821	107.805	35.910	-295.077	1.057	339.602	4.112	8.321	1.012	470047658.565
22.145	10.840	107.958	36.367	-295.004	1.064	341.400	3.164	8.397	1.016	695695128.635
22.356	10.833	108.223	36.848	-294.883	1.072	343.654	2.041	8.468	1.018	1337864408.912
22.607	10.755	108.498	37.452	-294.718	1.087	347.645	-0.165	8.544	1.016	NaN
22.817	10.775	108.565	37.862	-294.651	1.093	349.199	-1.071	8.616	1.020	NaN
23.031	10.730	108.728	38.261	-294.600	1.104	352.054	-2.708	8.681	1.019	NaN
23.185	10.641	108.874	38.676	-294.594	1.116	355.174	-4.547	8.720	1.015	NaN
23.346	10.621	109.224	39.028	-294.474	1.123	357.076	-5.415	8.767	1.015	NaN
23.567	10.462	109.518	39.550	-294.377	1.143	362.060	-8.343	8.814	1.006	NaN
23.722	10.153	109.664	39.956	-294.244	1.171	369.236	-12.915	8.812	0.986	NaN
23.904	5.724	109.999	40.393	-294.124	1.588	460.916	-81.010	7.316	0.656	NaN
24.076	3.762	110.276	40.707	-294.139	1.870	510.798	-124.312	6.018	0.487	NaN
24.208	3.558	110.475	41.068	-294.093	1.910	517.200	-130.031	5.862	0.468	NaN
24.373	3.541	110.647	41.308	-293.944	1.917	518.426	-131.001	5.866	0.468	NaN
24.501	3.551	110.819	41.654	-293.901	1.919	518.762	-131.142	5.888	0.469	NaN
24.638	3.572	111.003	41.992	-293.861	1.919	518.799	-130.992	5.921	0.472	NaN
24.803	3.589	111.102	42.339	-293.823	1.920	519.052	-131.129	5.954	0.474	NaN
24.979	3.616	111.347	42.723	-293.756	1.920	519.106	-130.934	5.997	0.477	NaN
25.118	3.637	111.603	42.994	-293.666	1.920	519.202	-130.767	6.029	0.480	NaN
25.216	3.657	111.589	43.249	-293.625	1.918	519.031	-130.623	6.058	0.482	NaN
25.326	3.673	111.851	43.497	-293.574	1.918	519.150	-130.472	6.083	0.484	NaN
25.477	3.695	112.060	43.890	-293.517	1.919	519.258	-130.364	6.118	0.487	NaN
25.665	3.713	112.216	44.352	-293.344	1.920	519.582	-130.510	6.154	0.489	NaN
25.846	3.741	112.394	44.756	-293.242	1.920	519.601	-130.350	6.199	0.493	NaN
26.057	3.771	112.458	45.172	-293.158	1.920	519.658	-130.340	6.248	0.497	NaN
26.193	3.800	112.610	45.540	-293.094	1.918	519.481	-130.021	6.288	0.500	NaN
26.348	3.818	112.720	45.892	-293.006	1.919	519.629	-130.050	6.321	0.503	NaN
26.478	3.844	112.902	46.175	-293.000	1.918	519.535	-129.780	6.357	0.506	NaN
26.587	3.860	113.144	46.384	-292.987	1.918	519.624	-129.622	6.382	0.508	NaN
26.683	3.878	113.339	46.616	-292.829	1.917	519.628	-129.431	6.407	0.510	NaN
26.739	3.889	113.497	46.795	-292.894	1.917	519.612	-129.257	6.423	0.511	NaN
26.834	3.900	113.659	46.877	-292.893	1.917	519.764	-129.237	6.442	0.512	NaN
26.858	3.911	113.804	47.027	-292.905	1.916	519.628	-128.965	6.454	0.513	NaN
26.933	3.919	113.977	47.204	-292.840	1.916	519.782	-128.936	6.468	0.514	NaN
26.984	3.923	114.170	47.241	-292.911	1.917	519.955	-128.905	6.477	0.515	NaN
27.022	3.934	114.332	47.309	-292.871	1.916	519.907	-128.698	6.489	0.516	NaN
27.072	3.935	114.443	47.399	-292.834	1.917	520.101	-128.769	6.495	0.516	NaN
27.058	3.944	114.453	47.444	-292.853	1.915	519.836	-128.510	6.501	0.517	NaN
27.196	3.955	114.652	47.676	-292.816	1.917	520.154	-128.609	6.525	0.518	NaN
27.250	3.969	114.858	47.833	-292.743	1.916	520.099	-128.351	6.542	0.520	NaN
27.372	3.975	115.040	48.160	-292.600	1.918	520.458	-128.505	6.561	0.521	NaN
27.464	3.994	115.150	48.459	-292.607	1.917	520.386	-128.328	6.587	0.523	NaN
27.633	4.012	115.300	48.760	-292.561	1.918	520.603	-128.381	6.621	0.526	NaN
27.721	4.028	115.487	48.915	-292.421	1.917	520.607	-128.198	6.644	0.527	NaN
27.828	4.044	115.612	49.217	-292.485	1.917	520.650	-128.113	6.669	0.529	NaN
27.875	4.058	115.670	49.325	-292.431	1.916	520.496	-127.910	6.686	0.531	NaN
27.952	4.066	115.594	49.531	-292.334	1.917	520.554	-128.041	6.702	0.532	NaN
28.047	4.079	115.734	49.575	-292.362	1.917	520.645	-127.987	6.723	0.534	NaN
28.103	4.091	115.896	49.720	-292.349	1.916	520.618	-127.799	6.739	0.535	NaN
28.128	4.098	115.855	49.788	-292.355	1.916	520.523	-127.752	6.748	0.536	NaN
27.956	4.092	116.024	49.659	-292.426	1.912	520.106	-127.192	6.723	0.534	NaN
26.488	4.001	116.052	48.812	-291.424	1.892	516.898	-124.173	6.474	0.518	NaN
22.739	4.586	116.174	47.948	-289.108	1.703	484.894	-95.224	6.407	0.546	NaN
17.262	11.653	116.280	48.728	-290.101	0.771	260.818	55.118	6.200	0.982	11200014.465
14.362	13.872	116.449	51.518	-289.983	0.223	79.548	110.759	2.031	1.055	1862495.439
14.112	14.155	116.420	56.107	-288.903	0.000	0.000	116.420	0.000	1.066	0.000
14.198	14.274	116.453	62.266	-287.372	0.000	0.000	116.453	0.000	1.075	0.000
14.215	14.278	116.541	67.133	-286.460	0.000	0.000	116.541	0.000	1.075	0.000
14.210	14.280	116.567	70.849	-285.827	0.000	0.000	116.567	0.000	1.075	0.000
14.205	14.275	116.387	73.521	-285.602	0.000	0.000	116.387	0.000	1.075	0.000
14.212	14.279	116.447	75.450	-285.436	0.000	0.000	116.447	0.000	1.075	0.000
14.202	14.272	116.460	76.619	-285.563	0.000	0.000	116.460	0.000	1.075	0.000
14.200	14.275	116.278	77.424	-285.687	0.000	0.000	116.278	0.000	1.076	0.000
14.207	14.280	116.326	78.189	-285.689	0.000	0.000	116.326	0.000	1.076	0.000
14.210	14.280	116.244	78.745	-285.716	0.000	0.000	116.244	0.000	1.076	0.000
14.213	14.281	116.334	79.139	-285.775	0.000	0.000	116.334	0.000	1.076	0.000
14.208	14.280	116.371	79.532	-285.692	0.000	0.000	116.371	0.000	1.076	0.000
14.209	14.280	116.377	79.832	-285.779	0.000	0.000	116.377	0.000	1.076	0.000
14.212	14.280	116.256	80.127	-285.748	0.000	0.000	116.256	0.000	1.076	0.000
14.209	14.280	116.207	80.401	-285.811	0.000	0.000	116.207	0.000	1.076	0.000
14.205	14.279	116.146	80.618	-285.779	0.000	0.000	116.146	0.000	1.076	0.000
14.206	14.280	116.166	80.861	-285.732	0.000	0.000	116.166	0.000	1.076	0.000
14.202	14.280	116.084	81.030	-285.617	0.000	0.000	116.084	0.000	1.076	0.000
14.213	14.280	116.122	81.214	-285.758	0.000	0.000	116.122	0.000	1.076	0.000
14.199	14.279	115.969	81.409	-285.621	0.000	0.000	115.969	0.000	1.076	0.000
14.210	14.278	116.035	81.523	-285.573	0.000	0.000	116.035	0.000	1.076	0.000
14.208	14.278	116.052	81.681	-285.524	0.000	0.000	116.052	0.000	1.076	0.000
14.209	14.280	115.895	81.807	-285.605	0.000	0.000	115.895	0.000	1.077	0.000
14.209	14.279	115.963	81.907	-285.572	0.000	0.000	115.963	0.000	1.076	0.000
