Stagnation Pressure	Static Pressure	Stagnation Temperature	Manifold Pressure	Tank Pressure	Mach Number	Velocity	Static Temperature	Mass Flow	Static Density	Reynold's Number
psia	psia	degF	psig	psig	N/A	m/s	degF	kg/s	kg/m^3	N/A
14.224	14.297	84.929	-0.049	-302.181	0.000	0.000	84.929	0.000	1.139	0.000
14.231	14.297	85.044	-0.058	-302.169	0.000	0.000	85.044	0.000	1.139	0.000
14.233	14.296	84.982	-0.057	-302.170	0.000	0.000	84.982	0.000	1.139	0.000
14.231	14.298	84.945	-0.057	-302.167	0.000	0.000	84.945	0.000	1.139	0.000
14.228	14.297	85.008	-0.056	-302.167	0.000	0.000	85.008	0.000	1.139	0.000
14.232	14.297	85.049	-0.058	-302.166	0.000	0.000	85.049	0.000	1.139	0.000
14.236	14.297	85.060	-0.055	-302.147	0.000	0.000	85.060	0.000	1.139	0.000
14.223	14.297	84.911	-0.055	-302.177	0.000	0.000	84.911	0.000	1.139	0.000
14.220	14.298	84.935	-0.050	-302.167	0.000	0.000	84.935	0.000	1.139	0.000
14.237	14.297	84.976	-0.059	-302.178	0.000	0.000	84.976	0.000	1.139	0.000
14.246	14.296	85.015	-0.064	-302.178	0.000	0.000	85.015	0.000	1.139	0.000
14.224	14.296	84.991	-0.055	-302.177	0.000	0.000	84.991	0.000	1.139	0.000
14.229	14.296	84.964	-0.060	-302.178	0.000	0.000	84.964	0.000	1.139	0.000
14.226	14.297	84.939	-0.052	-302.158	0.000	0.000	84.939	0.000	1.139	0.000
14.240	14.297	84.807	-0.061	-302.162	0.000	0.000	84.807	0.000	1.139	0.000
14.239	14.296	84.873	-0.054	-302.151	0.000	0.000	84.873	0.000	1.139	0.000
14.231	14.296	84.908	-0.062	-302.173	0.000	0.000	84.908	0.000	1.139	0.000
14.231	14.297	84.926	-0.064	-302.187	0.000	0.000	84.926	0.000	1.139	0.000
14.235	14.296	84.944	-0.062	-302.143	0.000	0.000	84.944	0.000	1.139	0.000
14.229	14.297	84.952	-0.063	-302.162	0.000	0.000	84.952	0.000	1.139	0.000
14.231	14.297	84.826	-0.052	-302.190	0.000	0.000	84.826	0.000	1.139	0.000
14.227	14.296	84.824	-0.061	-302.182	0.000	0.000	84.824	0.000	1.139	0.000
14.227	14.296	84.902	-0.059	-302.144	0.000	0.000	84.902	0.000	1.139	0.000
14.223	14.296	84.961	-0.050	-302.162	0.000	0.000	84.961	0.000	1.139	0.000
14.233	14.297	84.833	-0.060	-302.175	0.000	0.000	84.833	0.000	1.139	0.000
14.226	14.297	84.907	-0.060	-302.179	0.000	0.000	84.907	0.000	1.139	0.000
14.236	14.297	84.987	-0.062	-302.163	0.000	0.000	84.987	0.000	1.139	0.000
14.225	14.297	85.025	-0.054	-302.157	0.000	0.000	85.025	0.000	1.139	0.000
14.238	14.296	84.862	-0.056	-302.163	0.000	0.000	84.862	0.000	1.139	0.000
14.235	14.297	84.951	-0.057	-302.140	0.000	0.000	84.951	0.000	1.139	0.000
14.233	14.297	84.995	-0.057	-302.163	0.000	0.000	84.995	0.000	1.139	0.000
14.228	14.297	85.004	-0.066	-302.179	0.000	0.000	85.004	0.000	1.139	0.000
14.231	14.296	84.949	-0.056	-302.165	0.000	0.000	84.949	0.000	1.139	0.000
14.227	14.297	84.860	-0.058	-302.149	0.000	0.000	84.860	0.000	1.139	0.000
14.233	14.296	84.922	-0.054	-302.155	0.000	0.000	84.922	0.000	1.139	0.000
14.225	14.297	84.943	-0.056	-302.158	0.000	0.000	84.943	0.000	1.139	0.000
14.230	14.296	84.940	-0.059	-302.178	0.000	0.000	84.940	0.000	1.139	0.000
14.233	14.297	84.924	-0.057	-302.163	0.000	0.000	84.924	0.000	1.139	0.000
14.231	14.296	84.918	-0.058	-302.193	0.000	0.000	84.918	0.000	1.139	0.000
14.233	14.296	84.909	-0.058	-302.184	0.000	0.000	84.909	0.000	1.139	0.000
14.228	14.297	84.919	-0.056	-302.177	0.000	0.000	84.919	0.000	1.139	0.000
14.220	14.297	85.001	-0.056	-302.152	0.000	0.000	85.001	0.000	1.139	0.000
14.235	14.298	84.891	-0.060	-302.152	0.000	0.000	84.891	0.000	1.139	0.000
14.224	14.296	84.923	-0.058	-302.171	0.000	0.000	84.923	0.000	1.139	0.000
14.226	14.297	84.938	-0.057	-302.158	0.000	0.000	84.938	0.000	1.139	0.000
14.229	14.297	84.927	-0.064	-302.162	0.000	0.000	84.927	0.000	1.139	0.000
14.234	14.297	84.811	-0.056	-302.176	0.000	0.000	84.811	0.000	1.139	0.000
14.226	14.297	84.896	-0.065	-302.175	0.000	0.000	84.896	0.000	1.139	0.000
14.220	14.296	84.852	-0.058	-302.150	0.000	0.000	84.852	0.000	1.139	0.000
14.227	14.296	84.803	-0.059	-302.176	0.000	0.000	84.803	0.000	1.139	0.000
14.230	14.296	84.841	-0.059	-302.159	0.000	0.000	84.841	0.000	1.139	0.000
14.225	14.296	84.885	-0.061	-302.162	0.000	0.000	84.885	0.000	1.139	0.000
14.234	14.297	84.808	-0.058	-302.174	0.000	0.000	84.808	0.000	1.139	0.000
14.233	14.297	84.843	-0.055	-302.195	0.000	0.000	84.843	0.000	1.139	0.000
14.230	14.297	84.911	-0.058	-302.167	0.000	0.000	84.911	0.000	1.139	0.000
14.225	14.295	84.932	-0.064	-302.171	0.000	0.000	84.932	0.000	1.139	0.000
14.221	14.297	84.796	-0.057	-302.175	0.000	0.000	84.796	0.000	1.139	0.000
14.236	14.296	84.852	-0.059	-302.157	0.000	0.000	84.852	0.000	1.139	0.000
14.230	14.297	84.910	-0.060	-302.179	0.000	0.000	84.910	0.000	1.139	0.000
14.227	14.296	84.749	-0.058	-302.172	0.000	0.000	84.749	0.000	1.139	0.000
14.233	14.297	84.879	-0.061	-302.184	0.000	0.000	84.879	0.000	1.139	0.000
14.222	14.297	84.951	-0.058	-302.144	0.000	0.000	84.951	0.000	1.139	0.000
14.224	14.297	84.901	-0.055	-302.172	0.000	0.000	84.901	0.000	1.139	0.000
14.224	14.296	84.813	-0.059	-302.169	0.000	0.000	84.813	0.000	1.139	0.000
14.236	14.296	84.942	-0.057	-302.159	0.000	0.000	84.942	0.000	1.139	0.000
14.230	14.297	84.993	-0.060	-302.163	0.000	0.000	84.993	0.000	1.139	0.000
14.232	14.296	84.898	-0.058	-302.161	0.000	0.000	84.898	0.000	1.139	0.000
14.232	14.296	84.895	-0.059	-302.148	0.000	0.000	84.895	0.000	1.139	0.000
14.230	14.297	84.973	-0.060	-302.158	0.000	0.000	84.973	0.000	1.139	0.000
14.235	14.297	85.038	-0.062	-302.168	0.000	0.000	85.038	0.000	1.139	0.000
14.228	14.297	85.070	-0.058	-302.169	0.000	0.000	85.070	0.000	1.139	0.000
14.221	14.296	84.950	-0.058	-302.184	0.000	0.000	84.950	0.000	1.139	0.000
14.226	14.297	84.995	-0.056	-302.167	0.000	0.000	84.995	0.000	1.139	0.000
14.233	14.297	85.059	-0.060	-302.142	0.000	0.000	85.059	0.000	1.139	0.000
14.227	14.297	85.086	-0.061	-302.190	0.000	0.000	85.086	0.000	1.139	0.000
14.225	14.297	85.088	-0.058	-302.167	0.000	0.000	85.088	0.000	1.139	0.000
14.232	14.296	85.099	-0.061	-302.189	0.000	0.000	85.099	0.000	1.139	0.000
14.226	14.297	85.092	-0.057	-302.169	0.000	0.000	85.092	0.000	1.139	0.000
14.230	14.297	85.082	-0.057	-302.176	0.000	0.000	85.082	0.000	1.139	0.000
14.239	14.296	85.082	-0.056	-302.159	0.000	0.000	85.082	0.000	1.139	0.000
14.234	14.297	85.006	-0.057	-302.174	0.000	0.000	85.006	0.000	1.139	0.000
14.229	14.296	84.961	-0.061	-302.173	0.000	0.000	84.961	0.000	1.139	0.000
14.226	14.296	85.023	-0.061	-302.163	0.000	0.000	85.023	0.000	1.139	0.000
14.226	14.295	85.054	-0.061	-302.166	0.000	0.000	85.054	0.000	1.139	0.000
14.230	14.297	85.046	-0.053	-302.171	0.000	0.000	85.046	0.000	1.139	0.000
14.233	14.296	85.040	-0.063	-302.172	0.000	0.000	85.040	0.000	1.139	0.000
14.229	14.297	85.052	-0.061	-302.163	0.000	0.000	85.052	0.000	1.139	0.000
14.236	14.297	85.067	-0.061	-302.162	0.000	0.000	85.067	0.000	1.139	0.000
14.214	14.296	85.071	-0.060	-302.177	0.000	0.000	85.071	0.000	1.139	0.000
14.218	14.296	84.899	-0.057	-302.174	0.000	0.000	84.899	0.000	1.139	0.000
14.234	14.298	84.975	-0.064	-302.178	0.000	0.000	84.975	0.000	1.139	0.000
14.231	14.296	85.009	-0.055	-302.162	0.000	0.000	85.009	0.000	1.139	0.000
14.226	14.297	84.983	-0.054	-302.166	0.000	0.000	84.983	0.000	1.139	0.000
14.230	14.297	84.910	-0.056	-302.163	0.000	0.000	84.910	0.000	1.139	0.000
14.235	14.296	84.957	-0.060	-302.176	0.000	0.000	84.957	0.000	1.139	0.000
14.229	14.297	84.974	-0.059	-302.185	0.000	0.000	84.974	0.000	1.139	0.000
14.232	14.297	84.989	-0.059	-302.174	0.000	0.000	84.989	0.000	1.139	0.000
14.233	14.296	85.003	-0.060	-302.173	0.000	0.000	85.003	0.000	1.139	0.000
14.226	14.297	84.999	-0.060	-302.148	0.000	0.000	84.999	0.000	1.139	0.000
14.232	14.297	84.990	-0.058	-302.176	0.000	0.000	84.990	0.000	1.139	0.000
14.223	14.297	85.005	-0.062	-302.166	0.000	0.000	85.005	0.000	1.139	0.000
14.232	14.296	85.017	-0.060	-302.158	0.000	0.000	85.017	0.000	1.139	0.000
14.234	14.296	85.011	-0.062	-302.196	0.000	0.000	85.011	0.000	1.139	0.000
14.232	14.297	84.999	-0.063	-302.171	0.000	0.000	84.999	0.000	1.139	0.000
14.237	14.296	84.808	-0.055	-302.170	0.000	0.000	84.808	0.000	1.139	0.000
14.227	14.297	84.887	-0.055	-302.150	0.000	0.000	84.887	0.000	1.139	0.000
14.229	14.296	84.954	-0.059	-302.156	0.000	0.000	84.954	0.000	1.139	0.000
14.224	14.297	84.959	-0.058	-302.175	0.000	0.000	84.959	0.000	1.139	0.000
14.225	14.297	84.858	-0.061	-302.191	0.000	0.000	84.858	0.000	1.139	0.000
14.231	14.296	84.943	-0.055	-302.183	0.000	0.000	84.943	0.000	1.139	0.000
14.224	14.297	84.991	-0.058	-302.173	0.000	0.000	84.991	0.000	1.139	0.000
14.222	14.297	85.031	-0.058	-302.166	0.000	0.000	85.031	0.000	1.139	0.000
14.230	14.296	84.950	-0.054	-302.172	0.000	0.000	84.950	0.000	1.139	0.000
14.245	14.305	84.917	-0.030	-302.155	0.000	0.000	84.917	0.000	1.140	0.000
14.238	14.302	84.992	-0.004	-302.178	0.000	0.000	84.992	0.000	1.139	0.000
14.234	14.298	85.030	0.024	-302.165	0.000	0.000	85.030	0.000	1.139	0.000
14.241	14.299	84.893	0.053	-302.180	0.000	0.000	84.893	0.000	1.139	0.000
14.238	14.296	84.928	0.083	-302.136	0.000	0.000	84.928	0.000	1.139	0.000
14.246	14.294	85.002	0.099	-302.155	0.000	0.000	85.002	0.000	1.139	0.000
14.236	14.295	85.040	0.102	-302.151	0.000	0.000	85.040	0.000	1.139	0.000
14.238	14.293	85.059	0.116	-302.178	0.000	0.000	85.059	0.000	1.139	0.000
14.249	14.293	84.906	0.113	-302.156	0.000	0.000	84.906	0.000	1.139	0.000
14.239	14.293	85.016	0.114	-302.164	0.000	0.000	85.016	0.000	1.139	0.000
14.244	14.294	85.071	0.120	-302.140	0.000	0.000	85.071	0.000	1.139	0.000
14.241	14.293	85.101	0.128	-302.169	0.000	0.000	85.101	0.000	1.138	0.000
14.238	14.292	85.142	0.127	-302.170	0.000	0.000	85.142	0.000	1.138	0.000
14.232	14.293	85.126	0.130	-302.186	0.000	0.000	85.126	0.000	1.138	0.000
14.234	14.293	84.975	0.129	-302.154	0.000	0.000	84.975	0.000	1.139	0.000
14.246	14.292	84.923	0.134	-302.139	0.000	0.000	84.923	0.000	1.139	0.000
14.233	14.293	84.956	0.134	-302.147	0.000	0.000	84.956	0.000	1.139	0.000
14.235	14.292	85.002	0.132	-302.179	0.000	0.000	85.002	0.000	1.139	0.000
14.245	14.292	85.086	0.133	-302.173	0.000	0.000	85.086	0.000	1.138	0.000
14.237	14.292	85.318	0.137	-302.137	0.000	0.000	85.318	0.000	1.138	0.000
14.240	14.293	85.520	0.135	-302.152	0.000	0.000	85.520	0.000	1.138	0.000
14.243	14.292	85.647	0.130	-302.179	0.000	0.000	85.647	0.000	1.137	0.000
14.240	14.293	85.725	0.134	-302.155	0.000	0.000	85.725	0.000	1.137	0.000
14.238	14.293	85.615	0.135	-302.149	0.000	0.000	85.615	0.000	1.137	0.000
14.238	14.292	85.756	0.118	-302.172	0.000	0.000	85.756	0.000	1.137	0.000
14.249	14.291	85.792	0.091	-302.151	0.000	0.000	85.792	0.000	1.137	0.000
14.237	14.293	85.795	0.068	-302.160	0.000	0.000	85.795	0.000	1.137	0.000
14.240	14.293	85.935	0.056	-302.154	0.000	0.000	85.935	0.000	1.137	0.000
14.228	14.294	86.039	0.035	-302.156	0.000	0.000	86.039	0.000	1.137	0.000
14.235	14.293	86.111	0.017	-302.169	0.000	0.000	86.111	0.000	1.136	0.000
14.221	14.293	86.157	0.001	-302.196	0.000	0.000	86.157	0.000	1.136	0.000
14.236	14.295	86.204	-0.010	-302.160	0.000	0.000	86.204	0.000	1.136	0.000
14.227	14.295	86.238	-0.013	-302.153	0.000	0.000	86.238	0.000	1.136	0.000
14.236	14.294	86.309	-0.023	-302.182	0.000	0.000	86.309	0.000	1.136	0.000
14.227	14.296	86.360	-0.024	-302.195	0.000	0.000	86.360	0.000	1.136	0.000
14.232	14.295	86.261	-0.028	-302.162	0.000	0.000	86.261	0.000	1.136	0.000
14.234	14.296	86.351	-0.032	-302.171	0.000	0.000	86.351	0.000	1.136	0.000
14.234	14.295	86.434	-0.039	-302.159	0.000	0.000	86.434	0.000	1.136	0.000
14.239	14.296	86.492	-0.038	-302.166	0.000	0.000	86.492	0.000	1.136	0.000
14.231	14.296	86.538	-0.034	-302.173	0.000	0.000	86.538	0.000	1.136	0.000
14.231	14.296	86.552	-0.044	-302.189	0.000	0.000	86.552	0.000	1.136	0.000
14.230	14.295	86.590	-0.043	-302.160	0.000	0.000	86.590	0.000	1.136	0.000
14.222	14.296	86.561	-0.045	-302.167	0.000	0.000	86.561	0.000	1.136	0.000
14.229	14.296	86.536	-0.041	-302.165	0.000	0.000	86.536	0.000	1.136	0.000
14.236	14.296	86.663	-0.044	-302.160	0.000	0.000	86.663	0.000	1.135	0.000
14.232	14.297	86.785	-0.052	-302.179	0.000	0.000	86.785	0.000	1.135	0.000
14.238	14.297	86.849	-0.049	-302.164	0.000	0.000	86.849	0.000	1.135	0.000
14.230	14.297	86.877	-0.053	-302.177	0.000	0.000	86.877	0.000	1.135	0.000
14.240	14.295	86.927	-0.053	-302.161	0.000	0.000	86.927	0.000	1.135	0.000
14.224	14.297	86.948	-0.054	-302.184	0.000	0.000	86.948	0.000	1.135	0.000
14.238	14.296	86.973	-0.053	-302.162	0.000	0.000	86.973	0.000	1.135	0.000
14.227	14.296	87.020	-0.057	-302.172	0.000	0.000	87.020	0.000	1.135	0.000
14.231	14.296	87.040	-0.059	-302.180	0.000	0.000	87.040	0.000	1.135	0.000
14.236	14.296	87.071	-0.056	-302.171	0.000	0.000	87.071	0.000	1.135	0.000
14.224	14.296	87.092	-0.058	-302.158	0.000	0.000	87.092	0.000	1.135	0.000
14.232	14.296	87.092	-0.059	-302.182	0.000	0.000	87.092	0.000	1.135	0.000
14.233	14.297	86.948	-0.058	-302.186	0.000	0.000	86.948	0.000	1.135	0.000
14.231	14.297	86.970	-0.056	-302.197	0.000	0.000	86.970	0.000	1.135	0.000
14.236	14.296	87.138	-0.053	-302.184	0.000	0.000	87.138	0.000	1.134	0.000
14.233	14.297	87.231	-0.053	-302.177	0.000	0.000	87.231	0.000	1.134	0.000
14.230	14.297	87.306	-0.057	-302.185	0.000	0.000	87.306	0.000	1.134	0.000
14.230	14.296	87.378	-0.056	-302.168	0.000	0.000	87.378	0.000	1.134	0.000
14.220	14.297	87.418	-0.052	-302.175	0.000	0.000	87.418	0.000	1.134	0.000
14.237	14.296	87.447	-0.053	-302.181	0.000	0.000	87.447	0.000	1.134	0.000
14.224	14.296	87.279	-0.059	-302.179	0.000	0.000	87.279	0.000	1.134	0.000
14.226	14.297	87.341	-0.053	-302.192	0.000	0.000	87.341	0.000	1.134	0.000
14.231	14.301	87.416	-0.050	-302.187	0.000	0.000	87.416	0.000	1.134	0.000
14.242	14.305	87.249	-0.001	-302.161	0.000	0.000	87.249	0.000	1.135	0.000
14.253	14.302	87.408	0.057	-302.176	0.000	0.000	87.408	0.000	1.134	0.000
14.235	14.294	87.487	0.109	-302.166	0.000	0.000	87.487	0.000	1.134	0.000
14.232	14.293	87.426	0.113	-302.122	0.000	0.000	87.426	0.000	1.134	0.000
14.238	14.295	87.512	0.103	-302.167	0.000	0.000	87.512	0.000	1.134	0.000
14.234	14.293	87.554	0.113	-302.151	0.000	0.000	87.554	0.000	1.133	0.000
14.246	14.294	87.581	0.114	-302.126	0.000	0.000	87.581	0.000	1.133	0.000
14.242	14.292	87.512	0.123	-302.159	0.000	0.000	87.512	0.000	1.133	0.000
14.241	14.293	87.508	0.128	-302.167	0.000	0.000	87.508	0.000	1.134	0.000
14.234	14.293	87.614	0.131	-302.171	0.000	0.000	87.614	0.000	1.133	0.000
14.241	14.292	87.680	0.140	-302.168	0.000	0.000	87.680	0.000	1.133	0.000
14.246	14.293	87.726	0.139	-302.176	0.000	0.000	87.726	0.000	1.133	0.000
14.239	14.292	87.769	0.148	-302.159	0.000	0.000	87.769	0.000	1.133	0.000
14.240	14.293	87.788	0.153	-302.182	0.000	0.000	87.788	0.000	1.133	0.000
14.239	14.292	87.848	0.148	-302.143	0.000	0.000	87.848	0.000	1.133	0.000
14.237	14.293	87.716	0.147	-302.141	0.000	0.000	87.716	0.000	1.133	0.000
14.244	14.292	87.841	0.152	-302.156	0.000	0.000	87.841	0.000	1.133	0.000
14.237	14.294	87.962	0.153	-302.124	0.000	0.000	87.962	0.000	1.133	0.000
14.233	14.292	88.046	0.155	-302.155	0.000	0.000	88.046	0.000	1.132	0.000
14.240	14.293	88.129	0.156	-302.133	0.000	0.000	88.129	0.000	1.132	0.000
14.232	14.292	88.196	0.149	-302.168	0.000	0.000	88.196	0.000	1.132	0.000
14.237	14.293	88.189	0.148	-302.140	0.000	0.000	88.189	0.000	1.132	0.000
14.237	14.292	88.156	0.153	-302.177	0.000	0.000	88.156	0.000	1.132	0.000
14.244	14.292	88.287	0.160	-302.128	0.000	0.000	88.287	0.000	1.132	0.000
14.237	14.292	88.375	0.154	-302.123	0.000	0.000	88.375	0.000	1.132	0.000
14.243	14.292	88.442	0.154	-302.154	0.000	0.000	88.442	0.000	1.132	0.000
14.236	14.292	88.488	0.152	-302.130	0.000	0.000	88.488	0.000	1.131	0.000
14.238	14.293	88.550	0.155	-302.156	0.000	0.000	88.550	0.000	1.131	0.000
14.244	14.293	88.609	0.150	-302.147	0.000	0.000	88.609	0.000	1.131	0.000
14.246	14.292	88.650	0.149	-302.160	0.000	0.000	88.650	0.000	1.131	0.000
14.232	14.293	88.690	0.149	-302.172	0.000	0.000	88.690	0.000	1.131	0.000
14.246	14.292	88.744	0.151	-302.158	0.000	0.000	88.744	0.000	1.131	0.000
14.237	14.292	88.598	0.154	-302.165	0.000	0.000	88.598	0.000	1.131	0.000
14.237	14.292	88.763	0.154	-302.166	0.000	0.000	88.763	0.000	1.131	0.000
14.239	14.292	88.885	0.152	-302.146	0.000	0.000	88.885	0.000	1.131	0.000
14.240	14.293	88.920	0.150	-302.171	0.000	0.000	88.920	0.000	1.131	0.000
14.250	14.292	88.946	0.143	-302.184	0.000	0.000	88.946	0.000	1.130	0.000
14.240	14.292	89.114	0.151	-302.166	0.000	0.000	89.114	0.000	1.130	0.000
14.237	14.292	89.208	0.152	-302.129	0.000	0.000	89.208	0.000	1.130	0.000
14.244	14.292	89.276	0.153	-302.143	0.000	0.000	89.276	0.000	1.130	0.000
14.242	14.293	89.328	0.148	-302.155	0.000	0.000	89.328	0.000	1.130	0.000
14.240	14.292	89.382	0.152	-302.139	0.000	0.000	89.382	0.000	1.130	0.000
14.243	14.292	89.423	0.157	-302.175	0.000	0.000	89.423	0.000	1.129	0.000
14.228	14.292	89.486	0.153	-302.136	0.000	0.000	89.486	0.000	1.129	0.000
14.241	14.292	89.550	0.150	-302.142	0.000	0.000	89.550	0.000	1.129	0.000
14.242	14.292	89.617	0.155	-302.158	0.000	0.000	89.617	0.000	1.129	0.000
14.234	14.291	89.493	0.154	-302.140	0.000	0.000	89.493	0.000	1.129	0.000
14.242	14.292	89.419	0.147	-302.154	0.000	0.000	89.419	0.000	1.129	0.000
14.234	14.291	89.633	0.154	-302.173	0.000	0.000	89.633	0.000	1.129	0.000
14.232	14.292	89.670	0.151	-302.136	0.000	0.000	89.670	0.000	1.129	0.000
14.245	14.293	89.707	0.151	-302.153	0.000	0.000	89.707	0.000	1.129	0.000
14.244	14.291	89.845	0.150	-302.147	0.000	0.000	89.845	0.000	1.129	0.000
14.247	14.293	89.913	0.156	-302.129	0.000	0.000	89.913	0.000	1.129	0.000
14.241	14.292	90.025	0.160	-302.163	0.000	0.000	90.025	0.000	1.128	0.000
14.240	14.292	90.107	0.166	-302.142	0.000	0.000	90.107	0.000	1.128	0.000
14.263	14.297	90.172	0.193	-302.179	0.000	0.000	90.172	0.000	1.128	0.000
14.256	14.294	90.234	0.316	-302.170	0.000	0.000	90.234	0.000	1.128	0.000
14.324	14.309	90.125	0.820	-302.086	0.038	13.366	89.965	0.365	1.130	403065.280
14.337	14.282	90.035	1.484	-302.004	0.074	25.926	89.430	0.708	1.129	785426.940
14.330	14.249	90.218	2.049	-301.908	0.090	31.347	89.334	0.854	1.126	948585.940
14.360	14.236	90.361	2.569	-301.844	0.111	38.848	89.004	1.058	1.126	1179217.022
14.371	14.225	90.456	2.944	-301.849	0.121	42.208	88.855	1.149	1.125	1282567.918
14.370	14.212	90.462	3.227	-301.834	0.126	43.848	88.734	1.193	1.125	1333238.662
14.394	14.207	90.676	3.425	-301.785	0.137	47.696	88.630	1.298	1.124	1451572.085
14.403	14.201	90.845	3.605	-301.775	0.142	49.644	88.629	1.350	1.124	1510186.632
14.396	14.194	90.991	3.744	-301.821	0.142	49.629	88.776	1.349	1.123	1506281.316
14.404	14.192	91.155	3.847	-301.789	0.146	50.876	88.828	1.382	1.123	1542958.743
14.415	14.187	91.259	4.096	-301.725	0.151	52.758	88.756	1.433	1.123	1600841.156
14.443	14.173	91.230	4.486	-301.654	0.164	57.419	88.266	1.560	1.122	1751139.089
14.442	14.161	91.422	4.779	-301.604	0.168	58.570	88.338	1.589	1.121	1783084.002
14.463	14.153	91.715	5.065	-301.582	0.176	61.491	88.316	1.668	1.121	1871462.868
14.478	14.145	91.954	5.291	-301.565	0.183	63.748	88.300	1.728	1.120	1939468.685
14.477	14.136	92.159	5.500	-301.503	0.185	64.519	88.417	1.747	1.119	1958812.931
14.490	14.136	92.152	5.714	-301.498	0.188	65.697	88.271	1.780	1.120	1998221.755
14.492	14.122	92.436	5.905	-301.436	0.193	67.302	88.364	1.821	1.118	2042576.764
14.523	14.112	92.616	6.293	-301.353	0.203	70.855	88.102	1.917	1.118	2155884.406
14.539	14.094	92.643	6.772	-301.267	0.211	73.722	87.756	1.993	1.117	2249939.949
14.575	14.082	92.866	7.192	-301.122	0.222	77.559	87.458	2.096	1.117	2373821.484
14.591	14.065	93.178	7.518	-301.153	0.229	80.061	87.415	2.161	1.116	2448871.407
14.607	14.054	93.472	7.859	-301.060	0.235	82.132	87.407	2.216	1.115	2510461.792
14.611	14.036	93.802	8.139	-301.060	0.240	83.805	87.487	2.258	1.113	2555761.998
14.629	14.023	94.062	8.480	-300.938	0.247	86.021	87.409	2.315	1.112	2623468.721
14.669	14.014	94.287	8.913	-300.817	0.256	89.380	87.105	2.406	1.112	2734643.829
14.709	13.997	94.345	9.543	-300.688	0.267	93.153	86.543	2.507	1.112	2866821.937
14.744	13.963	94.619	10.236	-300.498	0.280	97.506	86.071	2.620	1.110	3011613.782
14.782	13.932	94.709	10.933	-300.276	0.292	101.720	85.406	2.730	1.109	3161485.505
14.818	13.908	95.066	11.427	-300.211	0.302	105.255	85.105	2.822	1.108	3278423.118
14.839	13.882	95.439	12.014	-300.142	0.310	107.903	84.971	2.888	1.106	3360527.350
14.876	13.854	95.739	12.430	-300.059	0.321	111.541	84.553	2.982	1.105	3485737.419
14.919	13.840	95.908	12.986	-299.895	0.329	114.545	84.112	3.061	1.104	3596606.269
14.971	13.805	96.249	13.714	-299.735	0.342	118.998	83.517	3.176	1.103	3756443.675
15.043	13.763	96.633	14.622	-299.464	0.359	124.598	82.675	3.320	1.101	3965464.041
15.118	13.715	96.787	15.502	-299.259	0.376	130.290	81.524	3.467	1.100	4196930.279
15.193	13.678	97.035	16.298	-299.167	0.390	135.308	80.574	3.597	1.099	4403509.864
15.243	13.632	97.325	17.029	-298.937	0.403	139.500	79.828	3.702	1.096	4571917.539
15.311	13.591	97.468	17.689	-298.813	0.416	144.016	78.820	3.817	1.095	4772985.240
15.370	13.565	97.680	18.251	-298.770	0.426	147.449	78.132	3.905	1.094	4925281.532
15.429	13.539	98.122	18.891	-298.598	0.436	150.786	77.680	3.990	1.093	5059879.613
15.519	13.489	98.413	19.683	-298.377	0.452	156.090	76.508	4.124	1.092	5308511.777
15.609	13.426	98.581	20.433	-298.241	0.469	161.749	75.058	4.265	1.090	5594319.483
15.706	13.372	98.932	21.127	-298.143	0.485	167.091	73.829	4.398	1.088	5863963.289
15.851	13.332	99.201	21.862	-297.960	0.503	173.161	72.241	4.558	1.088	6210225.419
16.064	13.295	99.435	22.534	-297.827	0.527	180.885	70.017	4.768	1.089	6703825.173
16.326	13.258	99.671	23.111	-297.780	0.554	189.531	67.373	5.007	1.092	7320191.261
16.607	13.231	99.974	23.725	-297.542	0.579	197.824	64.788	5.241	1.095	7977348.103
16.849	13.192	100.265	24.337	-297.447	0.602	205.059	62.459	5.441	1.096	8603136.428
17.113	13.076	100.512	24.931	-297.320	0.632	214.696	59.068	5.683	1.094	9531433.216
17.391	13.061	100.839	25.576	-297.248	0.653	221.274	56.816	5.876	1.097	10273107.456
17.666	12.979	101.047	26.220	-297.032	0.679	229.321	53.766	6.087	1.097	11297711.203
17.912	12.878	101.473	26.796	-296.994	0.703	236.964	50.986	6.275	1.094	12345825.723
18.213	12.848	101.791	27.494	-296.828	0.724	243.428	48.513	6.463	1.097	13438458.573
18.496	12.772	102.057	28.138	-296.615	0.747	250.446	45.663	6.647	1.097	14798746.822
18.811	12.531	102.306	28.754	-296.511	0.784	261.731	40.715	6.883	1.087	17487656.991
19.053	12.387	102.510	29.340	-296.494	0.809	269.031	37.435	7.040	1.081	19746017.317
19.279	12.273	102.830	29.821	-296.380	0.830	275.214	34.729	7.174	1.077	22012165.804
19.524	12.207	103.152	30.337	-296.304	0.847	280.360	32.481	7.302	1.076	24300747.000
19.747	12.115	103.538	30.929	-296.142	0.865	285.688	30.156	7.420	1.073	27052519.446
19.968	11.875	103.891	31.459	-295.971	0.895	294.094	26.126	7.549	1.061	32936511.306
20.239	11.814	104.229	31.978	-295.878	0.912	299.027	23.834	7.673	1.060	37631171.581
20.473	11.639	104.551	32.516	-295.793	0.936	305.796	20.475	7.784	1.052	46493235.230
20.704	11.494	104.859	33.039	-295.649	0.957	311.741	17.482	7.886	1.045	58042030.315
20.933	11.416	104.968	33.644	-295.526	0.973	316.062	15.152	7.980	1.043	71189542.426
21.192	11.315	105.303	34.230	-295.423	0.991	321.141	12.577	8.080	1.040	92963801.796
21.459	11.099	105.576	34.796	-295.333	1.018	328.533	8.532	8.179	1.029	161743092.247
21.706	11.044	105.758	35.382	-295.207	1.032	332.270	6.495	8.267	1.028	241119835.902
21.933	10.913	105.985	35.823	-295.018	1.051	337.286	3.702	8.341	1.022	549249851.470
22.121	10.869	106.208	36.237	-295.023	1.061	340.060	2.235	8.403	1.021	1160994142.064
22.334	10.824	106.380	36.695	-294.939	1.072	343.062	0.563	8.473	1.021	9089276596.598
22.540	10.801	106.594	37.179	-294.820	1.081	345.534	-0.753	8.540	1.021	NaN
22.727	10.731	106.845	37.560	-294.805	1.093	348.705	-2.481	8.595	1.019	NaN
22.881	10.780	107.081	37.969	-294.669	1.095	349.226	-2.572	8.649	1.023	NaN
23.040	10.737	107.298	38.287	-294.626	1.104	351.567	-3.830	8.696	1.022	NaN
23.245	10.635	107.512	38.809	-294.491	1.119	355.395	-6.049	8.750	1.017	NaN
23.370	10.631	107.736	39.132	-294.469	1.123	356.613	-6.605	8.788	1.018	NaN
23.500	10.561	107.924	39.373	-294.422	1.133	359.117	-8.029	8.819	1.015	NaN
23.668	10.005	108.132	39.750	-294.376	1.181	371.109	-15.694	8.782	0.978	NaN
23.792	9.766	108.340	39.990	-294.251	1.204	376.719	-19.257	8.772	0.962	NaN
23.955	8.748	108.620	40.425	-294.151	1.291	397.591	-33.509	8.571	0.891	NaN
24.131	5.938	108.885	40.825	-294.143	1.570	456.866	-78.780	7.480	0.677	NaN
24.282	3.836	109.123	41.117	-294.058	1.863	509.134	-123.940	6.109	0.496	NaN
24.421	3.609	109.320	41.445	-293.981	1.906	516.099	-130.163	5.937	0.475	NaN
24.578	3.588	109.463	41.802	-293.983	1.914	517.408	-131.236	5.936	0.474	NaN
24.713	3.599	109.600	42.123	-293.910	1.916	517.721	-131.391	5.960	0.476	NaN
24.857	3.622	109.870	42.390	-293.780	1.916	517.796	-131.190	5.995	0.478	NaN
24.983	3.640	110.010	42.685	-293.745	1.916	517.860	-131.111	6.025	0.481	NaN
25.120	3.655	110.230	43.083	-293.673	1.916	518.086	-131.101	6.052	0.483	NaN
25.284	3.680	110.546	43.389	-293.637	1.916	518.200	-130.890	6.091	0.486	NaN
25.430	3.701	110.653	43.748	-293.499	1.916	518.266	-130.845	6.125	0.488	NaN
25.549	3.721	110.924	44.062	-293.441	1.916	518.323	-130.627	6.155	0.491	NaN
25.658	3.736	111.167	44.283	-293.450	1.916	518.435	-130.488	6.180	0.493	NaN
25.751	3.755	111.224	44.359	-293.454	1.915	518.325	-130.329	6.206	0.495	NaN
25.856	3.773	111.474	44.616	-293.332	1.915	518.374	-130.125	6.232	0.497	NaN
25.981	3.787	111.643	44.881	-293.370	1.915	518.558	-130.127	6.258	0.499	NaN
26.073	3.801	111.742	45.209	-293.216	1.915	518.584	-130.052	6.280	0.500	NaN
26.194	3.818	111.964	45.432	-293.168	1.915	518.711	-129.949	6.307	0.502	NaN
26.363	3.838	112.072	45.871	-293.075	1.916	518.880	-129.999	6.343	0.505	NaN
26.467	3.866	112.319	46.111	-293.038	1.914	518.639	-129.527	6.378	0.508	NaN
26.597	3.878	112.613	46.333	-293.035	1.915	518.971	-129.543	6.402	0.510	NaN
26.702	3.895	112.719	46.515	-293.007	1.915	518.980	-129.445	6.427	0.512	NaN
26.764	3.909	112.937	46.686	-292.964	1.914	518.946	-129.195	6.446	0.513	NaN
26.839	3.919	113.176	46.812	-292.900	1.914	519.075	-129.077	6.462	0.514	NaN
26.918	3.924	113.185	46.976	-292.840	1.915	519.244	-129.226	6.475	0.515	NaN
27.028	3.943	113.426	47.288	-292.726	1.915	519.267	-129.006	6.503	0.518	NaN
27.099	3.956	113.686	47.419	-292.808	1.914	519.337	-128.811	6.520	0.519	NaN
27.224	3.967	113.883	47.750	-292.704	1.915	519.600	-128.859	6.543	0.520	NaN
27.346	3.987	113.939	47.868	-292.745	1.915	519.582	-128.788	6.574	0.523	NaN
27.371	3.996	114.192	48.069	-292.714	1.914	519.544	-128.499	6.584	0.524	NaN
27.434	4.002	114.279	48.183	-292.668	1.915	519.661	-128.521	6.596	0.524	NaN
27.500	4.014	114.364	48.349	-292.563	1.914	519.646	-128.422	6.613	0.526	NaN
27.486	4.021	114.467	48.409	-292.670	1.913	519.464	-128.149	6.616	0.526	NaN
27.545	4.027	114.604	48.481	-292.553	1.913	519.598	-128.137	6.627	0.527	NaN
27.618	4.032	114.870	48.570	-292.565	1.914	519.866	-128.122	6.638	0.528	NaN
27.608	4.035	115.066	48.528	-292.647	1.914	519.835	-127.897	6.639	0.528	NaN
27.635	4.039	115.075	48.665	-292.594	1.914	519.840	-127.892	6.646	0.528	NaN
27.673	4.041	115.096	48.780	-292.561	1.914	519.935	-127.960	6.652	0.529	NaN
27.771	4.055	115.158	48.991	-292.500	1.914	519.976	-127.936	6.674	0.530	NaN
27.850	4.064	115.421	49.089	-292.404	1.915	520.162	-127.848	6.689	0.531	NaN
27.861	4.070	115.681	49.156	-292.467	1.914	520.151	-127.577	6.695	0.532	NaN
27.533	4.056	115.802	49.497	-292.340	1.908	519.368	-126.724	6.644	0.529	NaN
25.715	3.908	115.811	50.971	-286.856	1.888	516.166	-123.734	6.306	0.505	NaN
22.070	5.670	115.996	54.344	-286.020	1.540	453.911	-69.250	6.922	0.630	NaN
16.304	12.543	116.142	60.378	-285.736	0.624	215.020	74.573	5.301	1.019	6998498.227
14.283	14.019	116.368	67.573	-283.619	0.163	58.279	113.314	1.497	1.062	1346617.777
14.143	14.229	116.418	75.659	-282.023	0.000	0.000	116.418	0.000	1.072	0.000
14.243	14.307	116.532	83.224	-280.953	0.000	0.000	116.532	0.000	1.077	0.000
14.250	14.308	116.643	89.389	-280.092	0.000	0.000	116.643	0.000	1.077	0.000
14.241	14.299	116.702	94.487	-279.579	0.000	0.000	116.702	0.000	1.077	0.000
14.237	14.300	116.736	98.591	-279.131	0.000	0.000	116.736	0.000	1.077	0.000
14.226	14.298	116.577	101.833	-278.965	0.000	0.000	116.577	0.000	1.077	0.000
14.242	14.302	116.681	104.455	-278.766	0.000	0.000	116.681	0.000	1.077	0.000
14.221	14.294	116.707	106.255	-278.816	0.000	0.000	116.707	0.000	1.076	0.000
14.236	14.298	116.716	107.307	-279.010	0.000	0.000	116.716	0.000	1.076	0.000
14.227	14.298	116.680	107.852	-279.252	0.000	0.000	116.680	0.000	1.077	0.000
14.232	14.299	116.525	107.866	-279.492	0.000	0.000	116.525	0.000	1.077	0.000
14.237	14.299	116.517	107.680	-279.700	0.000	0.000	116.517	0.000	1.077	0.000
14.220	14.298	116.356	107.463	-279.922	0.000	0.000	116.356	0.000	1.077	0.000
14.238	14.299	116.149	107.235	-280.150	0.000	0.000	116.149	0.000	1.078	0.000
14.232	14.298	116.337	107.068	-280.222	0.000	0.000	116.337	0.000	1.077	0.000
14.245	14.298	116.294	106.832	-280.287	0.000	0.000	116.294	0.000	1.077	0.000
