Stagnation Pressure	Static Pressure	Stagnation Temperature	Manifold Pressure	Tank Pressure	Mach Number	Velocity	Static Temperature	Mass Flow	Static Density	Reynold's Number
psia	psia	degF	psig	psig	N/A	m/s	degF	kg/s	kg/m^3	N/A
14.248	14.308	77.818	-0.058	-302.174	0.000	0.000	77.818	0.000	1.155	0.000
14.235	14.308	77.876	-0.051	-302.167	0.000	0.000	77.876	0.000	1.155	0.000
14.232	14.309	77.907	-0.058	-302.195	0.000	0.000	77.907	0.000	1.155	0.000
14.236	14.309	77.944	-0.051	-302.167	0.000	0.000	77.944	0.000	1.155	0.000
14.243	14.309	77.922	-0.053	-302.159	0.000	0.000	77.922	0.000	1.155	0.000
14.245	14.309	77.807	-0.051	-302.172	0.000	0.000	77.807	0.000	1.155	0.000
14.237	14.309	77.824	-0.053	-302.148	0.000	0.000	77.824	0.000	1.155	0.000
14.241	14.309	77.887	-0.061	-302.161	0.000	0.000	77.887	0.000	1.155	0.000
14.242	14.309	77.905	-0.056	-302.157	0.000	0.000	77.905	0.000	1.155	0.000
14.236	14.308	77.733	-0.054	-302.169	0.000	0.000	77.733	0.000	1.155	0.000
14.240	14.308	77.801	-0.054	-302.188	0.000	0.000	77.801	0.000	1.155	0.000
14.239	14.308	77.855	-0.053	-302.185	0.000	0.000	77.855	0.000	1.155	0.000
14.237	14.308	77.766	-0.049	-302.164	0.000	0.000	77.766	0.000	1.155	0.000
14.234	14.308	77.833	-0.049	-302.178	0.000	0.000	77.833	0.000	1.155	0.000
14.234	14.309	77.900	-0.056	-302.153	0.000	0.000	77.900	0.000	1.155	0.000
14.241	14.309	77.849	-0.053	-302.175	0.000	0.000	77.849	0.000	1.155	0.000
14.235	14.308	77.768	-0.058	-302.175	0.000	0.000	77.768	0.000	1.155	0.000
14.235	14.309	77.868	-0.056	-302.172	0.000	0.000	77.868	0.000	1.155	0.000
14.236	14.309	77.795	-0.053	-302.155	0.000	0.000	77.795	0.000	1.155	0.000
14.235	14.309	77.823	-0.058	-302.168	0.000	0.000	77.823	0.000	1.155	0.000
14.238	14.309	77.855	-0.057	-302.188	0.000	0.000	77.855	0.000	1.155	0.000
14.249	14.308	77.893	-0.055	-302.142	0.000	0.000	77.893	0.000	1.155	0.000
14.244	14.308	77.791	-0.061	-302.182	0.000	0.000	77.791	0.000	1.155	0.000
14.242	14.309	77.839	-0.053	-302.181	0.000	0.000	77.839	0.000	1.155	0.000
14.238	14.309	77.960	-0.045	-302.161	0.000	0.000	77.960	0.000	1.155	0.000
14.231	14.308	77.760	-0.053	-302.161	0.000	0.000	77.760	0.000	1.155	0.000
14.241	14.309	77.801	-0.053	-302.170	0.000	0.000	77.801	0.000	1.155	0.000
14.235	14.308	77.861	-0.057	-302.180	0.000	0.000	77.861	0.000	1.155	0.000
14.230	14.309	77.876	-0.053	-302.173	0.000	0.000	77.876	0.000	1.155	0.000
14.238	14.309	77.755	-0.054	-302.164	0.000	0.000	77.755	0.000	1.155	0.000
14.238	14.309	77.824	-0.051	-302.172	0.000	0.000	77.824	0.000	1.155	0.000
14.234	14.309	77.867	-0.055	-302.181	0.000	0.000	77.867	0.000	1.155	0.000
14.226	14.308	77.892	-0.052	-302.166	0.000	0.000	77.892	0.000	1.155	0.000
14.237	14.308	77.908	-0.048	-302.174	0.000	0.000	77.908	0.000	1.155	0.000
14.242	14.309	77.899	-0.053	-302.185	0.000	0.000	77.899	0.000	1.155	0.000
14.228	14.308	77.865	-0.057	-302.150	0.000	0.000	77.865	0.000	1.155	0.000
14.245	14.309	77.854	-0.054	-302.166	0.000	0.000	77.854	0.000	1.155	0.000
14.236	14.309	77.857	-0.053	-302.168	0.000	0.000	77.857	0.000	1.155	0.000
14.238	14.309	77.857	-0.055	-302.173	0.000	0.000	77.857	0.000	1.155	0.000
14.233	14.309	77.854	-0.056	-302.155	0.000	0.000	77.854	0.000	1.155	0.000
14.233	14.309	77.708	-0.060	-302.165	0.000	0.000	77.708	0.000	1.155	0.000
14.235	14.308	77.742	-0.058	-302.185	0.000	0.000	77.742	0.000	1.155	0.000
14.243	14.307	77.796	-0.059	-302.184	0.000	0.000	77.796	0.000	1.155	0.000
14.242	14.308	77.830	-0.054	-302.179	0.000	0.000	77.830	0.000	1.155	0.000
14.236	14.308	77.703	-0.046	-302.180	0.000	0.000	77.703	0.000	1.155	0.000
14.238	14.308	77.775	-0.057	-302.161	0.000	0.000	77.775	0.000	1.155	0.000
14.244	14.308	77.838	-0.051	-302.174	0.000	0.000	77.838	0.000	1.155	0.000
14.243	14.309	77.820	-0.055	-302.157	0.000	0.000	77.820	0.000	1.155	0.000
14.232	14.308	77.669	-0.058	-302.155	0.000	0.000	77.669	0.000	1.155	0.000
14.235	14.309	77.720	-0.057	-302.170	0.000	0.000	77.720	0.000	1.155	0.000
14.230	14.309	77.753	-0.051	-302.180	0.000	0.000	77.753	0.000	1.155	0.000
14.235	14.309	77.806	-0.058	-302.165	0.000	0.000	77.806	0.000	1.155	0.000
14.232	14.309	77.695	-0.051	-302.187	0.000	0.000	77.695	0.000	1.155	0.000
14.233	14.309	77.683	-0.049	-302.162	0.000	0.000	77.683	0.000	1.155	0.000
14.245	14.309	77.796	-0.055	-302.174	0.000	0.000	77.796	0.000	1.155	0.000
14.245	14.308	77.833	-0.054	-302.178	0.000	0.000	77.833	0.000	1.155	0.000
14.240	14.309	77.698	-0.059	-302.176	0.000	0.000	77.698	0.000	1.155	0.000
14.245	14.308	77.735	-0.055	-302.171	0.000	0.000	77.735	0.000	1.155	0.000
14.241	14.308	77.836	-0.055	-302.162	0.000	0.000	77.836	0.000	1.155	0.000
14.230	14.309	77.848	-0.053	-302.172	0.000	0.000	77.848	0.000	1.155	0.000
14.238	14.308	77.648	-0.055	-302.162	0.000	0.000	77.648	0.000	1.156	0.000
14.239	14.308	77.735	-0.054	-302.176	0.000	0.000	77.735	0.000	1.155	0.000
14.234	14.308	77.772	-0.057	-302.181	0.000	0.000	77.772	0.000	1.155	0.000
14.243	14.308	77.806	-0.050	-302.169	0.000	0.000	77.806	0.000	1.155	0.000
14.236	14.308	77.748	-0.055	-302.173	0.000	0.000	77.748	0.000	1.155	0.000
14.235	14.309	77.616	-0.056	-302.157	0.000	0.000	77.616	0.000	1.156	0.000
14.224	14.309	77.725	-0.060	-302.182	0.000	0.000	77.725	0.000	1.155	0.000
14.245	14.309	77.793	-0.056	-302.170	0.000	0.000	77.793	0.000	1.155	0.000
14.237	14.308	77.828	-0.062	-302.172	0.000	0.000	77.828	0.000	1.155	0.000
14.243	14.308	77.863	-0.053	-302.186	0.000	0.000	77.863	0.000	1.155	0.000
14.249	14.309	77.875	-0.057	-302.162	0.000	0.000	77.875	0.000	1.155	0.000
14.229	14.309	77.886	-0.056	-302.159	0.000	0.000	77.886	0.000	1.155	0.000
14.236	14.309	77.782	-0.056	-302.154	0.000	0.000	77.782	0.000	1.155	0.000
14.235	14.308	77.773	-0.050	-302.173	0.000	0.000	77.773	0.000	1.155	0.000
14.256	14.316	77.829	-0.033	-302.167	0.000	0.000	77.829	0.000	1.156	0.000
14.259	14.318	77.911	0.019	-302.179	0.000	0.000	77.911	0.000	1.156	0.000
14.248	14.311	77.778	0.077	-302.166	0.000	0.000	77.778	0.000	1.155	0.000
14.247	14.310	77.859	0.123	-302.152	0.000	0.000	77.859	0.000	1.155	0.000
14.261	14.307	77.896	0.181	-302.112	0.000	0.000	77.896	0.000	1.155	0.000
14.263	14.305	77.953	0.221	-302.150	0.000	0.000	77.953	0.000	1.155	0.000
14.249	14.303	77.957	0.243	-302.146	0.000	0.000	77.957	0.000	1.154	0.000
14.250	14.302	77.979	0.261	-302.127	0.000	0.000	77.979	0.000	1.154	0.000
14.246	14.302	77.985	0.267	-302.139	0.000	0.000	77.985	0.000	1.154	0.000
14.256	14.302	77.967	0.288	-302.151	0.000	0.000	77.967	0.000	1.154	0.000
14.247	14.301	77.955	0.304	-302.120	0.000	0.000	77.955	0.000	1.154	0.000
14.257	14.301	77.870	0.304	-302.159	0.000	0.000	77.870	0.000	1.154	0.000
14.259	14.300	77.813	0.311	-302.146	0.000	0.000	77.813	0.000	1.155	0.000
14.253	14.301	77.894	0.314	-302.148	0.000	0.000	77.894	0.000	1.154	0.000
14.256	14.300	77.937	0.320	-302.140	0.000	0.000	77.937	0.000	1.154	0.000
14.257	14.301	77.990	0.324	-302.145	0.000	0.000	77.990	0.000	1.154	0.000
14.257	14.301	78.067	0.320	-302.155	0.000	0.000	78.067	0.000	1.154	0.000
14.249	14.302	78.032	0.320	-302.143	0.000	0.000	78.032	0.000	1.154	0.000
14.257	14.301	77.865	0.318	-302.181	0.000	0.000	77.865	0.000	1.154	0.000
14.248	14.300	77.889	0.322	-302.160	0.000	0.000	77.889	0.000	1.154	0.000
14.254	14.301	78.109	0.326	-302.161	0.000	0.000	78.109	0.000	1.154	0.000
14.253	14.300	78.311	0.325	-302.158	0.000	0.000	78.311	0.000	1.153	0.000
14.255	14.299	78.435	0.324	-302.162	0.000	0.000	78.435	0.000	1.153	0.000
14.258	14.300	78.548	0.321	-302.119	0.000	0.000	78.548	0.000	1.153	0.000
14.251	14.299	78.598	0.323	-302.141	0.000	0.000	78.598	0.000	1.153	0.000
14.254	14.298	78.529	0.290	-302.151	0.000	0.000	78.529	0.000	1.153	0.000
14.245	14.299	78.696	0.240	-302.141	0.000	0.000	78.696	0.000	1.153	0.000
14.241	14.302	78.809	0.191	-302.163	0.000	0.000	78.809	0.000	1.152	0.000
14.247	14.303	78.920	0.158	-302.158	0.000	0.000	78.920	0.000	1.152	0.000
14.246	14.303	79.029	0.137	-302.163	0.000	0.000	79.029	0.000	1.152	0.000
14.243	14.304	79.103	0.112	-302.182	0.000	0.000	79.103	0.000	1.152	0.000
14.239	14.303	79.182	0.089	-302.156	0.000	0.000	79.182	0.000	1.152	0.000
14.240	14.304	79.144	0.073	-302.175	0.000	0.000	79.144	0.000	1.152	0.000
14.238	14.306	79.224	0.048	-302.190	0.000	0.000	79.224	0.000	1.152	0.000
14.239	14.305	79.335	0.040	-302.185	0.000	0.000	79.335	0.000	1.152	0.000
14.236	14.307	79.472	0.014	-302.169	0.000	0.000	79.472	0.000	1.151	0.000
14.232	14.306	79.557	0.006	-302.172	0.000	0.000	79.557	0.000	1.151	0.000
14.237	14.307	79.583	0.008	-302.148	0.000	0.000	79.583	0.000	1.151	0.000
14.240	14.307	79.632	-0.000	-302.170	0.000	0.000	79.632	0.000	1.151	0.000
14.247	14.307	79.535	-0.002	-302.151	0.000	0.000	79.535	0.000	1.151	0.000
14.235	14.307	79.652	-0.014	-302.148	0.000	0.000	79.652	0.000	1.151	0.000
14.243	14.306	79.729	-0.018	-302.173	0.000	0.000	79.729	0.000	1.151	0.000
14.237	14.307	79.774	-0.020	-302.155	0.000	0.000	79.774	0.000	1.151	0.000
14.251	14.307	79.813	-0.026	-302.162	0.000	0.000	79.813	0.000	1.151	0.000
14.233	14.308	79.848	-0.034	-302.163	0.000	0.000	79.848	0.000	1.151	0.000
14.235	14.307	79.904	-0.026	-302.199	0.000	0.000	79.904	0.000	1.151	0.000
14.243	14.307	79.956	-0.027	-302.147	0.000	0.000	79.956	0.000	1.151	0.000
14.245	14.308	79.978	-0.029	-302.172	0.000	0.000	79.978	0.000	1.150	0.000
14.245	14.308	80.026	-0.026	-302.190	0.000	0.000	80.026	0.000	1.150	0.000
14.237	14.307	80.051	-0.034	-302.183	0.000	0.000	80.051	0.000	1.150	0.000
14.234	14.309	80.065	-0.037	-302.195	0.000	0.000	80.065	0.000	1.150	0.000
14.234	14.308	79.963	-0.040	-302.161	0.000	0.000	79.963	0.000	1.151	0.000
14.238	14.306	80.038	-0.037	-302.184	0.000	0.000	80.038	0.000	1.150	0.000
14.236	14.307	80.124	-0.042	-302.169	0.000	0.000	80.124	0.000	1.150	0.000
14.229	14.309	80.157	-0.042	-302.180	0.000	0.000	80.157	0.000	1.150	0.000
14.238	14.308	80.194	-0.043	-302.177	0.000	0.000	80.194	0.000	1.150	0.000
14.245	14.308	80.243	-0.043	-302.175	0.000	0.000	80.243	0.000	1.150	0.000
14.242	14.308	80.305	-0.046	-302.162	0.000	0.000	80.305	0.000	1.150	0.000
14.231	14.306	80.296	-0.047	-302.172	0.000	0.000	80.296	0.000	1.150	0.000
14.236	14.307	80.218	-0.049	-302.139	0.000	0.000	80.218	0.000	1.150	0.000
14.234	14.308	80.320	-0.048	-302.151	0.000	0.000	80.320	0.000	1.150	0.000
14.238	14.309	80.392	-0.049	-302.173	0.000	0.000	80.392	0.000	1.150	0.000
14.241	14.308	80.435	-0.046	-302.170	0.000	0.000	80.435	0.000	1.150	0.000
14.228	14.308	80.453	-0.050	-302.155	0.000	0.000	80.453	0.000	1.150	0.000
14.236	14.309	80.481	-0.048	-302.174	0.000	0.000	80.481	0.000	1.150	0.000
14.246	14.314	80.489	-0.022	-302.158	0.000	0.000	80.489	0.000	1.150	0.000
14.251	14.314	80.552	0.040	-302.167	0.000	0.000	80.552	0.000	1.150	0.000
14.258	14.313	80.358	0.109	-302.115	0.000	0.000	80.358	0.000	1.150	0.000
14.255	14.311	80.274	0.220	-302.134	0.000	0.000	80.274	0.000	1.150	0.000
14.250	14.303	80.240	0.266	-302.104	0.000	0.000	80.240	0.000	1.150	0.000
14.249	14.299	80.392	0.269	-302.126	0.000	0.000	80.392	0.000	1.149	0.000
14.254	14.303	80.494	0.289	-302.164	0.000	0.000	80.494	0.000	1.149	0.000
14.254	14.301	80.538	0.305	-302.156	0.000	0.000	80.538	0.000	1.149	0.000
14.253	14.300	80.601	0.311	-302.162	0.000	0.000	80.601	0.000	1.149	0.000
14.256	14.302	80.650	0.325	-302.133	0.000	0.000	80.650	0.000	1.149	0.000
14.257	14.300	80.645	0.336	-302.143	0.000	0.000	80.645	0.000	1.148	0.000
14.255	14.301	80.701	0.345	-302.147	0.000	0.000	80.701	0.000	1.148	0.000
14.253	14.299	80.664	0.360	-302.139	0.000	0.000	80.664	0.000	1.148	0.000
14.262	14.300	80.452	0.365	-302.153	0.000	0.000	80.452	0.000	1.149	0.000
14.266	14.300	80.672	0.367	-302.126	0.000	0.000	80.672	0.000	1.148	0.000
14.256	14.299	80.852	0.374	-302.155	0.000	0.000	80.852	0.000	1.148	0.000
14.259	14.299	80.913	0.379	-302.143	0.000	0.000	80.913	0.000	1.148	0.000
14.264	14.299	81.025	0.373	-302.137	0.000	0.000	81.025	0.000	1.148	0.000
14.261	14.299	81.087	0.379	-302.123	0.000	0.000	81.087	0.000	1.147	0.000
14.257	14.299	81.168	0.374	-302.173	0.000	0.000	81.168	0.000	1.147	0.000
14.258	14.300	81.086	0.387	-302.147	0.000	0.000	81.086	0.000	1.147	0.000
14.258	14.300	81.201	0.387	-302.148	0.000	0.000	81.201	0.000	1.147	0.000
14.258	14.299	81.334	0.384	-302.138	0.000	0.000	81.334	0.000	1.147	0.000
14.241	14.298	81.426	0.381	-302.153	0.000	0.000	81.426	0.000	1.147	0.000
14.261	14.299	81.345	0.381	-302.148	0.000	0.000	81.345	0.000	1.147	0.000
14.256	14.298	81.513	0.380	-302.163	0.000	0.000	81.513	0.000	1.146	0.000
14.245	14.299	81.579	0.377	-302.116	0.000	0.000	81.579	0.000	1.146	0.000
14.257	14.299	81.544	0.380	-302.141	0.000	0.000	81.544	0.000	1.146	0.000
14.254	14.299	81.696	0.387	-302.156	0.000	0.000	81.696	0.000	1.146	0.000
14.263	14.300	81.797	0.384	-302.162	0.000	0.000	81.797	0.000	1.146	0.000
14.260	14.299	81.789	0.381	-302.150	0.000	0.000	81.789	0.000	1.146	0.000
14.254	14.299	81.700	0.384	-302.124	0.000	0.000	81.700	0.000	1.146	0.000
14.258	14.298	81.774	0.376	-302.141	0.000	0.000	81.774	0.000	1.146	0.000
14.252	14.299	81.982	0.384	-302.154	0.000	0.000	81.982	0.000	1.146	0.000
14.259	14.298	82.101	0.383	-302.135	0.000	0.000	82.101	0.000	1.145	0.000
14.261	14.298	82.178	0.377	-302.133	0.000	0.000	82.178	0.000	1.145	0.000
14.251	14.298	82.274	0.381	-302.145	0.000	0.000	82.274	0.000	1.145	0.000
14.261	14.299	82.326	0.379	-302.153	0.000	0.000	82.326	0.000	1.145	0.000
14.253	14.298	82.398	0.381	-302.156	0.000	0.000	82.398	0.000	1.145	0.000
14.263	14.298	82.284	0.378	-302.171	0.000	0.000	82.284	0.000	1.145	0.000
14.248	14.299	82.456	0.384	-302.146	0.000	0.000	82.456	0.000	1.145	0.000
14.262	14.298	82.584	0.380	-302.170	0.000	0.000	82.584	0.000	1.144	0.000
14.257	14.299	82.714	0.380	-302.141	0.000	0.000	82.714	0.000	1.144	0.000
14.254	14.297	82.816	0.378	-302.161	0.000	0.000	82.816	0.000	1.144	0.000
14.257	14.298	82.884	0.378	-302.131	0.000	0.000	82.884	0.000	1.144	0.000
14.259	14.298	82.937	0.377	-302.157	0.000	0.000	82.937	0.000	1.143	0.000
14.260	14.299	82.892	0.378	-302.139	0.000	0.000	82.892	0.000	1.144	0.000
14.259	14.298	82.903	0.384	-302.133	0.000	0.000	82.903	0.000	1.144	0.000
14.247	14.300	83.046	0.379	-302.145	0.000	0.000	83.046	0.000	1.143	0.000
14.255	14.299	83.131	0.383	-302.148	0.000	0.000	83.131	0.000	1.143	0.000
14.264	14.298	83.203	0.372	-302.159	0.000	0.000	83.203	0.000	1.143	0.000
14.260	14.299	83.291	0.378	-302.155	0.000	0.000	83.291	0.000	1.143	0.000
14.259	14.299	83.376	0.380	-302.157	0.000	0.000	83.376	0.000	1.143	0.000
14.257	14.298	83.435	0.383	-302.149	0.000	0.000	83.435	0.000	1.142	0.000
14.261	14.300	83.507	0.403	-302.123	0.000	0.000	83.507	0.000	1.142	0.000
14.264	14.301	83.602	0.482	-302.121	0.000	0.000	83.602	0.000	1.142	0.000
14.272	14.300	83.661	0.634	-302.121	0.000	0.000	83.661	0.000	1.142	0.000
14.334	14.315	83.721	1.024	-302.089	0.043	14.917	83.520	0.413	1.144	488260.903
14.376	14.274	83.778	2.187	-301.920	0.101	35.016	82.676	0.968	1.142	1155779.652
14.426	14.221	83.867	3.718	-301.606	0.143	49.621	81.653	1.369	1.140	1654457.439
14.482	14.201	83.966	4.788	-301.338	0.167	58.069	80.934	1.602	1.140	1952431.432
14.500	14.159	84.044	5.639	-301.254	0.185	63.982	80.364	1.762	1.138	2161890.702
14.534	14.136	84.076	6.266	-301.264	0.200	69.125	79.779	1.902	1.137	2350913.784
14.558	14.121	84.052	6.828	-301.060	0.209	72.364	79.344	1.991	1.137	2473510.343
14.594	14.102	84.236	7.255	-301.032	0.222	76.787	78.934	2.111	1.136	2636242.778
14.580	14.077	84.385	7.545	-301.005	0.225	77.710	78.955	2.133	1.134	2662396.829
14.595	14.071	84.531	7.764	-301.059	0.229	79.307	78.876	2.176	1.134	2719082.865
14.631	14.061	84.703	8.221	-300.910	0.239	82.660	78.560	2.268	1.134	2844826.299
14.658	14.039	84.767	8.760	-300.819	0.249	86.165	78.091	2.362	1.133	2980539.938
14.682	14.017	84.798	9.217	-300.788	0.258	89.309	77.627	2.447	1.132	3105090.867
14.697	14.000	85.083	9.538	-300.678	0.264	91.377	77.575	2.501	1.131	3175574.606
14.704	13.992	85.175	9.782	-300.648	0.267	92.361	77.505	2.526	1.130	3211237.709
14.717	13.980	85.504	10.021	-300.619	0.272	94.017	77.557	2.569	1.129	3263462.501
14.749	13.972	85.732	10.301	-300.674	0.279	96.461	77.366	2.635	1.129	3355726.211
14.788	13.951	85.786	10.863	-300.472	0.290	100.056	76.784	2.732	1.128	3505110.554
14.846	13.928	86.096	11.668	-300.256	0.303	104.722	76.236	2.858	1.128	3692159.410
14.887	13.884	86.306	12.425	-300.026	0.317	109.490	75.528	2.983	1.126	3888522.314
14.926	13.863	86.493	13.000	-299.835	0.327	112.684	75.076	3.068	1.125	4023016.885
14.942	13.831	86.854	13.445	-299.807	0.334	115.206	74.921	3.130	1.123	4113263.586
14.978	13.820	87.309	13.831	-299.785	0.341	117.586	74.878	3.193	1.122	4197763.606
14.988	13.800	87.732	14.094	-299.743	0.346	119.194	74.959	3.231	1.120	4243549.499
15.014	13.793	88.111	14.320	-299.723	0.350	120.795	74.992	3.272	1.119	4296336.642
15.058	13.768	88.454	14.841	-299.586	0.360	124.078	74.612	3.358	1.118	4430584.156
15.119	13.733	88.752	15.610	-299.316	0.373	128.553	73.894	3.475	1.117	4628882.925
15.187	13.694	89.026	16.390	-299.108	0.387	133.328	73.043	3.599	1.115	4850415.717
15.224	13.645	89.296	17.102	-298.926	0.399	137.147	72.385	3.693	1.113	5022637.127
15.309	13.628	89.600	17.733	-298.901	0.411	141.289	71.652	3.806	1.113	5228268.569
15.364	13.567	89.849	18.401	-298.612	0.425	146.065	70.667	3.924	1.110	5466122.592
15.444	13.594	90.094	18.921	-298.538	0.431	147.942	70.416	3.984	1.113	5570111.854
15.534	13.577	90.371	19.559	-298.420	0.443	151.950	69.612	4.093	1.113	5789053.505
15.635	13.510	90.662	20.475	-298.228	0.462	158.185	68.165	4.252	1.111	6142934.746
15.819	13.468	90.941	21.651	-297.931	0.485	165.863	66.206	4.461	1.111	6640215.820
16.019	13.411	91.204	22.625	-297.689	0.510	174.154	63.935	4.684	1.111	7228750.998
16.351	13.392	91.652	23.568	-297.551	0.542	184.388	61.083	4.979	1.116	8059900.482
16.690	13.324	92.108	24.274	-297.440	0.576	195.571	57.719	5.289	1.117	9091083.599
17.058	13.132	92.630	25.131	-297.199	0.623	210.336	52.852	5.659	1.112	10701677.043
17.387	12.985	92.976	25.945	-297.049	0.659	221.784	48.751	5.948	1.108	12300910.574
17.765	12.995	93.410	26.798	-296.909	0.684	229.284	46.143	6.186	1.115	13609066.563
18.173	12.881	93.806	27.749	-296.588	0.719	240.109	41.971	6.475	1.114	15879686.860
18.554	12.710	94.124	28.625	-296.469	0.755	251.210	37.385	6.746	1.110	18950141.035
18.930	12.542	94.432	29.400	-296.386	0.790	261.505	32.947	6.992	1.105	22866297.086
19.265	12.387	94.524	30.172	-296.183	0.820	270.312	28.828	7.198	1.100	27751945.494
19.554	12.092	94.930	30.792	-296.029	0.858	281.328	23.770	7.390	1.085	36368635.335
19.832	12.001	95.231	31.352	-295.851	0.878	287.245	21.047	7.530	1.083	43386493.309
20.105	11.892	95.436	32.099	-295.810	0.900	293.293	18.094	7.666	1.080	53899220.827
20.343	11.820	95.766	32.627	-295.813	0.916	297.939	15.955	7.776	1.078	64692481.183
20.664	11.593	96.052	33.298	-295.510	0.948	306.742	11.455	7.926	1.068	103757418.954
20.880	11.456	96.371	33.774	-295.510	0.967	312.211	8.731	8.018	1.061	153505718.543
21.078	11.331	96.690	34.228	-295.411	0.985	317.118	6.273	8.098	1.055	248259986.276
21.281	11.096	96.824	34.682	-295.239	1.011	324.166	2.343	8.176	1.042	1053926834.137
21.473	11.057	97.119	35.160	-295.245	1.022	327.074	0.936	8.245	1.042	4147575731.181
21.715	11.007	97.467	35.664	-295.145	1.035	330.668	-0.842	8.330	1.041	NaN
21.942	10.933	97.827	36.166	-295.037	1.049	334.522	-2.788	8.406	1.038	NaN
22.134	10.941	98.138	36.545	-294.957	1.056	336.347	-3.577	8.473	1.041	NaN
22.286	10.899	98.387	36.910	-294.878	1.065	338.709	-4.761	8.522	1.040	NaN
22.489	10.841	98.621	37.444	-294.744	1.077	341.834	-6.439	8.587	1.038	NaN
22.650	10.801	98.843	37.708	-294.748	1.085	344.177	-7.663	8.636	1.037	NaN
22.827	10.787	99.002	38.208	-294.639	1.093	346.117	-8.707	8.694	1.038	NaN
23.004	10.842	99.169	38.609	-294.567	1.095	346.711	-8.911	8.757	1.044	NaN
23.198	10.643	99.514	38.992	-294.428	1.117	352.327	-12.095	8.798	1.032	NaN
23.340	10.663	99.798	39.417	-294.477	1.120	353.255	-12.400	8.844	1.035	NaN
23.536	10.559	100.007	39.817	-294.245	1.134	356.948	-14.549	8.892	1.029	NaN
23.692	10.351	100.048	40.230	-294.196	1.155	362.162	-17.879	8.911	1.017	NaN
23.910	9.055	100.279	40.678	-294.105	1.264	388.443	-35.384	8.705	0.926	NaN
24.123	8.825	100.495	41.102	-293.999	1.290	394.445	-39.394	8.697	0.911	NaN
24.279	5.015	100.540	41.465	-293.994	1.687	475.431	-102.688	7.014	0.610	NaN
24.415	3.761	100.706	41.793	-293.909	1.879	507.961	-131.284	6.110	0.497	NaN
24.550	3.612	101.020	42.094	-293.870	1.909	512.784	-135.396	5.998	0.483	NaN
24.682	3.607	101.144	42.324	-293.825	1.914	513.523	-135.954	6.008	0.483	NaN
24.809	3.614	101.422	42.652	-293.731	1.916	513.956	-136.077	6.028	0.485	NaN
24.921	3.628	101.621	42.860	-293.693	1.916	514.100	-136.011	6.052	0.486	NaN
25.040	3.645	101.670	43.275	-293.596	1.916	514.140	-135.998	6.080	0.489	NaN
25.214	3.667	101.955	43.597	-293.495	1.917	514.379	-135.934	6.118	0.491	NaN
25.356	3.692	102.130	43.935	-293.541	1.916	514.340	-135.723	6.155	0.494	NaN
25.486	3.713	102.273	44.258	-293.318	1.916	514.342	-135.582	6.188	0.497	NaN
25.600	3.726	102.541	44.525	-293.375	1.916	514.565	-135.520	6.211	0.499	NaN
25.731	3.743	102.680	44.780	-293.371	1.916	514.661	-135.470	6.241	0.501	NaN
25.808	3.765	102.976	44.974	-293.347	1.915	514.517	-135.041	6.267	0.503	NaN
25.932	3.781	103.300	45.139	-293.205	1.915	514.725	-134.910	6.293	0.505	NaN
26.030	3.790	103.537	45.344	-293.120	1.916	514.973	-134.901	6.311	0.506	NaN
26.169	3.805	103.593	45.689	-293.116	1.917	515.130	-134.991	6.340	0.509	NaN
26.309	3.830	103.819	46.166	-292.975	1.916	515.110	-134.746	6.377	0.512	NaN
26.479	3.852	104.032	46.447	-293.026	1.917	515.284	-134.695	6.414	0.514	NaN
26.619	3.874	104.245	46.766	-292.841	1.916	515.335	-134.529	6.448	0.517	NaN
26.737	3.899	104.411	47.064	-292.813	1.915	515.223	-134.259	6.482	0.520	NaN
26.837	3.913	104.589	47.291	-292.680	1.915	515.303	-134.155	6.506	0.522	NaN
26.921	3.928	104.702	47.556	-292.733	1.915	515.285	-134.026	6.528	0.523	NaN
27.036	3.936	104.877	47.668	-292.611	1.916	515.589	-134.132	6.547	0.525	NaN
27.083	3.950	105.045	47.850	-292.757	1.915	515.491	-133.873	6.563	0.526	NaN
27.150	3.958	105.311	48.004	-292.648	1.915	515.647	-133.752	6.577	0.527	NaN
27.215	3.966	105.539	48.076	-292.688	1.915	515.793	-133.660	6.590	0.528	NaN
27.250	3.980	105.743	48.209	-292.684	1.914	515.659	-133.332	6.605	0.529	NaN
27.273	3.981	105.894	48.218	-292.742	1.914	515.805	-133.316	6.607	0.529	NaN
27.348	3.990	106.083	48.309	-292.649	1.915	515.927	-133.240	6.623	0.530	NaN
27.389	3.992	106.299	48.441	-292.588	1.915	516.133	-133.215	6.628	0.531	NaN
27.475	4.006	106.501	48.639	-292.487	1.915	516.176	-133.054	6.649	0.532	NaN
27.520	4.018	106.672	48.820	-292.563	1.914	516.126	-132.836	6.663	0.533	NaN
27.578	4.030	106.832	49.042	-292.443	1.914	516.109	-132.660	6.680	0.535	NaN
27.703	4.038	106.798	49.269	-292.375	1.915	516.348	-132.917	6.701	0.536	NaN
27.786	4.054	107.009	49.260	-292.436	1.915	516.356	-132.712	6.723	0.538	NaN
27.847	4.064	107.184	49.533	-292.321	1.914	516.406	-132.583	6.738	0.539	NaN
27.924	4.074	107.332	49.749	-292.291	1.915	516.514	-132.536	6.754	0.540	NaN
28.075	4.090	107.487	50.090	-292.295	1.916	516.732	-132.584	6.785	0.543	NaN
28.151	4.102	107.664	50.288	-292.174	1.915	516.767	-132.439	6.803	0.544	NaN
28.257	4.119	107.768	50.554	-292.158	1.915	516.778	-132.345	6.830	0.546	NaN
28.162	4.125	107.798	50.749	-292.081	1.912	516.310	-131.880	6.824	0.546	NaN
26.915	4.047	107.911	51.275	-288.346	1.895	513.708	-129.358	6.609	0.532	NaN
23.592	4.210	108.202	51.975	-286.380	1.784	495.585	-112.621	6.313	0.526	NaN
17.909	11.141	108.381	53.821	-287.726	0.852	283.063	36.340	6.677	0.975	19400930.885
14.369	13.948	108.521	58.335	-287.210	0.206	73.071	103.720	1.900	1.074	1843461.553
14.143	14.215	108.639	64.963	-285.957	0.000	0.000	108.639	0.000	1.085	0.000
14.250	14.317	108.567	71.558	-284.628	0.000	0.000	108.567	0.000	1.093	0.000
14.250	14.312	108.685	77.315	-283.537	0.000	0.000	108.685	0.000	1.093	0.000
14.238	14.313	108.768	81.624	-282.997	0.000	0.000	108.768	0.000	1.093	0.000
14.234	14.310	108.814	84.784	-282.657	0.000	0.000	108.814	0.000	1.092	0.000
14.239	14.311	108.817	87.201	-282.594	0.000	0.000	108.817	0.000	1.092	0.000
14.237	14.309	108.766	88.873	-282.602	0.000	0.000	108.766	0.000	1.092	0.000
14.229	14.304	108.898	90.122	-282.720	0.000	0.000	108.898	0.000	1.092	0.000
14.243	14.310	108.924	91.097	-282.717	0.000	0.000	108.924	0.000	1.092	0.000
14.235	14.310	108.941	91.786	-282.814	0.000	0.000	108.941	0.000	1.092	0.000
14.237	14.311	108.937	92.339	-282.821	0.000	0.000	108.937	0.000	1.092	0.000
14.240	14.311	108.808	92.866	-282.775	0.000	0.000	108.808	0.000	1.092	0.000
14.242	14.311	108.667	93.244	-282.890	0.000	0.000	108.667	0.000	1.093	0.000
14.230	14.310	108.719	93.607	-282.781	0.000	0.000	108.719	0.000	1.093	0.000
14.240	14.311	108.783	93.997	-282.781	0.000	0.000	108.783	0.000	1.092	0.000
14.242	14.311	108.812	94.298	-282.734	0.000	0.000	108.812	0.000	1.092	0.000
14.235	14.310	108.815	94.565	-282.705	0.000	0.000	108.815	0.000	1.092	0.000
14.238	14.310	108.777	94.823	-282.743	0.000	0.000	108.777	0.000	1.092	0.000
14.233	14.310	108.743	95.044	-282.682	0.000	0.000	108.743	0.000	1.092	0.000
14.239	14.310	108.684	95.267	-282.651	0.000	0.000	108.684	0.000	1.093	0.000
14.234	14.310	108.489	95.436	-282.565	0.000	0.000	108.489	0.000	1.093	0.000
14.231	14.310	108.549	95.644	-282.502	0.000	0.000	108.549	0.000	1.093	0.000
14.234	14.310	108.507	95.807	-282.542	0.000	0.000	108.507	0.000	1.093	0.000
14.233	14.310	108.350	95.909	-282.511	0.000	0.000	108.350	0.000	1.093	0.000
14.246	14.309	108.341	96.051	-282.555	0.000	0.000	108.341	0.000	1.093	0.000
14.240	14.305	88.844	1.435	-302.027	0.000	0.000	88.844	0.000	1.132	0.000
14.243	14.306	88.793	1.424	-302.017	0.000	0.000	88.793	0.000	1.132	0.000
14.236	14.306	88.721	1.410	-302.012	0.000	0.000	88.721	0.000	1.132	0.000
14.237	14.307	88.778	1.391	-302.050	0.000	0.000	88.778	0.000	1.132	0.000
14.242	14.306	88.873	1.387	-302.060	0.000	0.000	88.873	0.000	1.132	0.000
14.237	14.305	88.847	1.372	-301.961	0.000	0.000	88.847	0.000	1.132	0.000
14.237	14.305	88.832	1.371	-302.023	0.000	0.000	88.832	0.000	1.132	0.000
14.238	14.307	88.693	1.348	-302.065	0.000	0.000	88.693	0.000	1.132	0.000
14.231	14.306	88.547	1.343	-302.086	0.000	0.000	88.547	0.000	1.132	0.000
14.242	14.305	88.608	1.338	-302.086	0.000	0.000	88.608	0.000	1.132	0.000
14.243	14.306	88.697	1.325	-302.093	0.000	0.000	88.697	0.000	1.132	0.000
14.232	14.306	88.724	1.309	-302.103	0.000	0.000	88.724	0.000	1.132	0.000
14.228	14.306	88.736	1.299	-302.109	0.000	0.000	88.736	0.000	1.132	0.000
14.228	14.306	88.751	1.281	-302.090	0.000	0.000	88.751	0.000	1.132	0.000
14.238	14.306	88.741	1.259	-302.091	0.000	0.000	88.741	0.000	1.132	0.000
14.236	14.306	88.590	1.223	-302.089	0.000	0.000	88.590	0.000	1.132	0.000
14.242	14.306	88.505	1.197	-302.105	0.000	0.000	88.505	0.000	1.132	0.000
14.232	14.307	88.626	1.160	-302.099	0.000	0.000	88.626	0.000	1.132	0.000
14.235	14.305	88.702	1.122	-302.122	0.000	0.000	88.702	0.000	1.132	0.000
14.238	14.305	88.722	1.098	-302.105	0.000	0.000	88.722	0.000	1.132	0.000
14.238	14.306	88.715	1.062	-302.123	0.000	0.000	88.715	0.000	1.132	0.000
14.242	14.306	88.723	1.039	-302.109	0.000	0.000	88.723	0.000	1.132	0.000
14.241	14.306	88.726	0.994	-302.107	0.000	0.000	88.726	0.000	1.132	0.000
14.235	14.306	88.732	0.964	-302.125	0.000	0.000	88.732	0.000	1.132	0.000
14.241	14.306	88.575	0.932	-302.094	0.000	0.000	88.575	0.000	1.132	0.000
14.233	14.306	88.453	0.890	-302.111	0.000	0.000	88.453	0.000	1.133	0.000
14.232	14.306	88.405	0.838	-302.152	0.000	0.000	88.405	0.000	1.133	0.000
14.243	14.307	88.586	0.781	-302.117	0.000	0.000	88.586	0.000	1.132	0.000
14.247	14.307	88.697	0.722	-302.112	0.000	0.000	88.697	0.000	1.132	0.000
14.234	14.306	88.766	0.651	-302.159	0.000	0.000	88.766	0.000	1.132	0.000
14.239	14.305	88.810	0.572	-302.135	0.000	0.000	88.810	0.000	1.132	0.000
14.243	14.306	88.789	0.481	-302.145	0.000	0.000	88.789	0.000	1.132	0.000
14.238	14.305	88.682	0.388	-302.132	0.000	0.000	88.682	0.000	1.132	0.000
14.237	14.306	88.776	0.269	-302.143	0.000	0.000	88.776	0.000	1.132	0.000
14.238	14.304	88.820	0.177	-302.168	0.000	0.000	88.820	0.000	1.132	0.000
14.237	14.305	88.828	0.073	-302.193	0.000	0.000	88.828	0.000	1.132	0.000
14.226	14.305	88.832	-0.000	-302.169	0.000	0.000	88.832	0.000	1.132	0.000
14.225	14.305	88.691	-0.045	-302.181	0.000	0.000	88.691	0.000	1.132	0.000
14.237	14.306	88.556	-0.061	-302.178	0.000	0.000	88.556	0.000	1.132	0.000
14.228	14.307	88.649	-0.059	-302.141	0.000	0.000	88.649	0.000	1.132	0.000
14.222	14.306	88.727	-0.061	-302.180	0.000	0.000	88.727	0.000	1.132	0.000
14.231	14.305	88.762	-0.054	-302.179	0.000	0.000	88.762	0.000	1.132	0.000
14.242	14.306	88.765	-0.053	-302.179	0.000	0.000	88.765	0.000	1.132	0.000
14.243	14.306	88.755	-0.058	-302.192	0.000	0.000	88.755	0.000	1.132	0.000
14.241	14.306	88.744	-0.057	-302.148	0.000	0.000	88.744	0.000	1.132	0.000
14.231	14.307	88.558	-0.057	-302.169	0.000	0.000	88.558	0.000	1.132	0.000
14.244	14.306	88.488	-0.056	-302.171	0.000	0.000	88.488	0.000	1.133	0.000
14.237	14.306	88.621	-0.053	-302.179	0.000	0.000	88.621	0.000	1.132	0.000
14.237	14.307	88.712	-0.053	-302.156	0.000	0.000	88.712	0.000	1.132	0.000
14.236	14.306	88.750	-0.060	-302.184	0.000	0.000	88.750	0.000	1.132	0.000
14.243	14.306	88.762	-0.053	-302.157	0.000	0.000	88.762	0.000	1.132	0.000
14.232	14.306	88.762	-0.056	-302.169	0.000	0.000	88.762	0.000	1.132	0.000
14.246	14.306	88.677	-0.059	-302.173	0.000	0.000	88.677	0.000	1.132	0.000
14.239	14.306	88.553	-0.052	-302.173	0.000	0.000	88.553	0.000	1.132	0.000
14.231	14.306	88.603	-0.057	-302.187	0.000	0.000	88.603	0.000	1.132	0.000
14.241	14.306	88.694	-0.057	-302.180	0.000	0.000	88.694	0.000	1.132	0.000
14.240	14.306	88.737	-0.054	-302.187	0.000	0.000	88.737	0.000	1.132	0.000
14.229	14.306	88.759	-0.053	-302.157	0.000	0.000	88.759	0.000	1.132	0.000
14.234	14.306	88.765	-0.051	-302.164	0.000	0.000	88.765	0.000	1.132	0.000
14.230	14.306	88.546	-0.052	-302.161	0.000	0.000	88.546	0.000	1.132	0.000
14.240	14.306	88.627	-0.056	-302.163	0.000	0.000	88.627	0.000	1.132	0.000
14.237	14.306	88.465	-0.057	-302.178	0.000	0.000	88.465	0.000	1.133	0.000
14.242	14.306	88.410	-0.054	-302.164	0.000	0.000	88.410	0.000	1.133	0.000
14.246	14.306	88.564	-0.058	-302.163	0.000	0.000	88.564	0.000	1.132	0.000
14.241	14.306	88.644	-0.054	-302.177	0.000	0.000	88.644	0.000	1.132	0.000
14.237	14.307	88.676	-0.055	-302.177	0.000	0.000	88.676	0.000	1.132	0.000
14.240	14.306	88.694	-0.056	-302.175	0.000	0.000	88.694	0.000	1.132	0.000
14.245	14.306	88.701	-0.059	-302.170	0.000	0.000	88.701	0.000	1.132	0.000
14.231	14.307	88.707	-0.053	-302.164	0.000	0.000	88.707	0.000	1.132	0.000
14.239	14.305	88.728	-0.053	-302.145	0.000	0.000	88.728	0.000	1.132	0.000
14.239	14.306	88.566	-0.050	-302.169	0.000	0.000	88.566	0.000	1.132	0.000
14.235	14.305	88.517	-0.057	-302.158	0.000	0.000	88.517	0.000	1.132	0.000
14.241	14.305	88.587	-0.059	-302.152	0.000	0.000	88.587	0.000	1.132	0.000
14.233	14.305	88.474	-0.052	-302.177	0.000	0.000	88.474	0.000	1.132	0.000
14.231	14.306	88.375	-0.054	-302.178	0.000	0.000	88.375	0.000	1.133	0.000
14.250	14.306	88.293	-0.055	-302.168	0.000	0.000	88.293	0.000	1.133	0.000
14.234	14.305	88.238	-0.053	-302.183	0.000	0.000	88.238	0.000	1.133	0.000
14.241	14.305	88.207	-0.054	-302.173	0.000	0.000	88.207	0.000	1.133	0.000
14.237	14.307	88.232	-0.057	-302.166	0.000	0.000	88.232	0.000	1.133	0.000
14.237	14.307	88.277	-0.055	-302.175	0.000	0.000	88.277	0.000	1.133	0.000
14.234	14.306	88.466	-0.061	-302.183	0.000	0.000	88.466	0.000	1.133	0.000
14.242	14.306	88.552	-0.056	-302.155	0.000	0.000	88.552	0.000	1.132	0.000
14.232	14.306	88.583	-0.053	-302.156	0.000	0.000	88.583	0.000	1.132	0.000
14.240	14.307	88.579	-0.062	-302.190	0.000	0.000	88.579	0.000	1.132	0.000
14.237	14.306	88.563	-0.053	-302.171	0.000	0.000	88.563	0.000	1.132	0.000
14.237	14.306	88.545	-0.054	-302.177	0.000	0.000	88.545	0.000	1.132	0.000
14.237	14.305	88.543	-0.053	-302.160	0.000	0.000	88.543	0.000	1.132	0.000
14.233	14.306	88.536	-0.056	-302.174	0.000	0.000	88.536	0.000	1.132	0.000
14.239	14.306	88.383	-0.056	-302.173	0.000	0.000	88.383	0.000	1.133	0.000
14.247	14.306	88.290	-0.055	-302.181	0.000	0.000	88.290	0.000	1.133	0.000
14.243	14.306	88.214	-0.056	-302.171	0.000	0.000	88.214	0.000	1.133	0.000
14.231	14.306	88.228	-0.058	-302.181	0.000	0.000	88.228	0.000	1.133	0.000
14.240	14.306	88.219	-0.051	-302.162	0.000	0.000	88.219	0.000	1.133	0.000
14.245	14.305	88.202	-0.055	-302.186	0.000	0.000	88.202	0.000	1.133	0.000
14.241	14.307	88.164	-0.049	-302.164	0.000	0.000	88.164	0.000	1.133	0.000
14.233	14.306	88.236	-0.053	-302.165	0.000	0.000	88.236	0.000	1.133	0.000
14.238	14.306	88.381	-0.052	-302.181	0.000	0.000	88.381	0.000	1.133	0.000
14.241	14.305	88.297	-0.050	-302.170	0.000	0.000	88.297	0.000	1.133	0.000
14.242	14.306	88.269	-0.056	-302.194	0.000	0.000	88.269	0.000	1.133	0.000
14.232	14.305	88.264	-0.059	-302.178	0.000	0.000	88.264	0.000	1.133	0.000
14.237	14.306	88.369	-0.059	-302.167	0.000	0.000	88.369	0.000	1.133	0.000
14.237	14.306	88.487	-0.052	-302.166	0.000	0.000	88.487	0.000	1.132	0.000
14.239	14.306	88.547	-0.055	-302.180	0.000	0.000	88.547	0.000	1.132	0.000
14.237	14.305	88.602	-0.055	-302.138	0.000	0.000	88.602	0.000	1.132	0.000
14.243	14.305	88.621	-0.057	-302.161	0.000	0.000	88.621	0.000	1.132	0.000
14.239	14.306	88.623	-0.055	-302.168	0.000	0.000	88.623	0.000	1.132	0.000
14.242	14.305	88.625	-0.057	-302.164	0.000	0.000	88.625	0.000	1.132	0.000
14.235	14.306	88.632	-0.053	-302.168	0.000	0.000	88.632	0.000	1.132	0.000
14.235	14.305	88.649	-0.053	-302.175	0.000	0.000	88.649	0.000	1.132	0.000
14.243	14.306	88.650	-0.057	-302.169	0.000	0.000	88.650	0.000	1.132	0.000
14.234	14.306	88.660	-0.057	-302.154	0.000	0.000	88.660	0.000	1.132	0.000
14.249	14.306	88.661	-0.052	-302.198	0.000	0.000	88.661	0.000	1.132	0.000
14.240	14.306	88.664	-0.059	-302.162	0.000	0.000	88.664	0.000	1.132	0.000
14.242	14.306	88.667	-0.053	-302.143	0.000	0.000	88.667	0.000	1.132	0.000
14.238	14.306	88.662	-0.057	-302.157	0.000	0.000	88.662	0.000	1.132	0.000
14.243	14.306	88.661	-0.053	-302.172	0.000	0.000	88.661	0.000	1.132	0.000
14.250	14.306	88.665	-0.055	-302.178	0.000	0.000	88.665	0.000	1.132	0.000
14.252	14.305	88.564	-0.052	-302.191	0.000	0.000	88.564	0.000	1.132	0.000
14.239	14.305	88.389	-0.048	-302.137	0.000	0.000	88.389	0.000	1.133	0.000
14.228	14.306	88.310	-0.055	-302.147	0.000	0.000	88.310	0.000	1.133	0.000
14.241	14.305	88.287	-0.045	-302.146	0.000	0.000	88.287	0.000	1.133	0.000
14.237	14.306	88.261	-0.053	-302.178	0.000	0.000	88.261	0.000	1.133	0.000
14.235	14.306	88.255	-0.053	-302.179	0.000	0.000	88.255	0.000	1.133	0.000
14.247	14.306	88.243	-0.055	-302.188	0.000	0.000	88.243	0.000	1.133	0.000
14.231	14.306	88.395	-0.052	-302.171	0.000	0.000	88.395	0.000	1.133	0.000
14.240	14.306	88.516	-0.059	-302.184	0.000	0.000	88.516	0.000	1.132	0.000
14.241	14.306	88.572	-0.055	-302.158	0.000	0.000	88.572	0.000	1.132	0.000
14.235	14.306	88.601	-0.051	-302.178	0.000	0.000	88.601	0.000	1.132	0.000
14.237	14.306	88.620	-0.056	-302.163	0.000	0.000	88.620	0.000	1.132	0.000
14.247	14.305	88.607	-0.052	-302.172	0.000	0.000	88.607	0.000	1.132	0.000
14.242	14.305	88.621	-0.053	-302.169	0.000	0.000	88.621	0.000	1.132	0.000
14.232	14.305	88.622	-0.056	-302.174	0.000	0.000	88.622	0.000	1.132	0.000
14.242	14.306	88.633	-0.052	-302.166	0.000	0.000	88.633	0.000	1.132	0.000
14.246	14.306	88.638	-0.052	-302.152	0.000	0.000	88.638	0.000	1.132	0.000
14.237	14.306	88.634	-0.054	-302.175	0.000	0.000	88.634	0.000	1.132	0.000
14.234	14.306	88.628	-0.059	-302.181	0.000	0.000	88.628	0.000	1.132	0.000
14.240	14.306	88.616	-0.055	-302.163	0.000	0.000	88.616	0.000	1.132	0.000
14.238	14.305	88.602	-0.055	-302.168	0.000	0.000	88.602	0.000	1.132	0.000
14.246	14.306	88.591	-0.052	-302.199	0.000	0.000	88.591	0.000	1.132	0.000
14.231	14.307	88.605	-0.055	-302.158	0.000	0.000	88.605	0.000	1.132	0.000
14.242	14.305	88.602	-0.052	-302.182	0.000	0.000	88.602	0.000	1.132	0.000
14.245	14.306	88.590	-0.054	-302.197	0.000	0.000	88.590	0.000	1.132	0.000
14.247	14.307	88.583	-0.052	-302.193	0.000	0.000	88.583	0.000	1.132	0.000
14.231	14.306	88.580	-0.055	-302.180	0.000	0.000	88.580	0.000	1.132	0.000
14.240	14.306	88.583	-0.052	-302.189	0.000	0.000	88.583	0.000	1.132	0.000
14.238	14.305	88.592	-0.053	-302.168	0.000	0.000	88.592	0.000	1.132	0.000
14.234	14.306	88.601	-0.057	-302.185	0.000	0.000	88.601	0.000	1.132	0.000
14.237	14.306	88.669	-0.051	-302.153	0.000	0.000	88.669	0.000	1.132	0.000
14.235	14.305	88.629	-0.052	-302.148	0.000	0.000	88.629	0.000	1.132	0.000
14.252	14.317	88.606	-0.020	-302.162	0.000	0.000	88.606	0.000	1.133	0.000
14.254	14.312	88.596	0.028	-302.159	0.000	0.000	88.596	0.000	1.133	0.000
14.248	14.308	88.591	0.073	-302.152	0.000	0.000	88.591	0.000	1.132	0.000
14.255	14.309	88.572	0.132	-302.151	0.000	0.000	88.572	0.000	1.133	0.000
14.252	14.304	88.566	0.186	-302.142	0.000	0.000	88.566	0.000	1.132	0.000
14.261	14.302	88.550	0.220	-302.136	0.000	0.000	88.550	0.000	1.132	0.000
14.246	14.300	88.539	0.242	-302.156	0.000	0.000	88.539	0.000	1.132	0.000
14.255	14.300	88.538	0.261	-302.127	0.000	0.000	88.538	0.000	1.132	0.000
14.254	14.300	88.531	0.284	-302.165	0.000	0.000	88.531	0.000	1.132	0.000
14.254	14.298	88.533	0.292	-302.121	0.000	0.000	88.533	0.000	1.132	0.000
14.258	14.298	88.543	0.303	-302.146	0.000	0.000	88.543	0.000	1.132	0.000
14.254	14.298	88.549	0.315	-302.142	0.000	0.000	88.549	0.000	1.132	0.000
14.259	14.298	88.563	0.315	-302.163	0.000	0.000	88.563	0.000	1.132	0.000
14.260	14.298	88.595	0.319	-302.169	0.000	0.000	88.595	0.000	1.132	0.000
14.254	14.298	88.632	0.323	-302.160	0.000	0.000	88.632	0.000	1.132	0.000
14.258	14.298	88.670	0.329	-302.132	0.000	0.000	88.670	0.000	1.131	0.000
14.246	14.298	88.728	0.317	-302.171	0.000	0.000	88.728	0.000	1.131	0.000
14.248	14.298	88.777	0.331	-302.134	0.000	0.000	88.777	0.000	1.131	0.000
14.266	14.297	88.766	0.333	-302.120	0.000	0.000	88.766	0.000	1.131	0.000
14.254	14.298	88.795	0.335	-302.121	0.000	0.000	88.795	0.000	1.131	0.000
14.250	14.298	88.930	0.326	-302.162	0.000	0.000	88.930	0.000	1.131	0.000
14.251	14.297	88.897	0.339	-302.162	0.000	0.000	88.897	0.000	1.131	0.000
14.253	14.297	88.969	0.320	-302.166	0.000	0.000	88.969	0.000	1.131	0.000
14.259	14.298	89.095	0.326	-302.165	0.000	0.000	89.095	0.000	1.131	0.000
14.269	14.297	89.013	0.335	-302.139	0.000	0.000	89.013	0.000	1.131	0.000
14.254	14.298	89.120	0.327	-302.144	0.000	0.000	89.120	0.000	1.131	0.000
14.255	14.297	89.088	0.327	-302.157	0.000	0.000	89.088	0.000	1.131	0.000
14.249	14.299	89.256	0.327	-302.170	0.000	0.000	89.256	0.000	1.130	0.000
14.251	14.296	89.256	0.309	-302.149	0.000	0.000	89.256	0.000	1.130	0.000
14.244	14.296	89.410	0.270	-302.142	0.000	0.000	89.410	0.000	1.130	0.000
14.255	14.298	89.543	0.221	-302.162	0.000	0.000	89.543	0.000	1.130	0.000
14.243	14.299	89.492	0.178	-302.157	0.000	0.000	89.492	0.000	1.130	0.000
14.245	14.300	89.682	0.138	-302.152	0.000	0.000	89.682	0.000	1.130	0.000
14.238	14.300	89.842	0.104	-302.166	0.000	0.000	89.842	0.000	1.129	0.000
14.239	14.302	89.929	0.074	-302.155	0.000	0.000	89.929	0.000	1.129	0.000
14.235	14.301	90.027	0.047	-302.161	0.000	0.000	90.027	0.000	1.129	0.000
14.245	14.303	90.137	0.035	-302.178	0.000	0.000	90.137	0.000	1.129	0.000
14.239	14.304	90.234	0.029	-302.169	0.000	0.000	90.234	0.000	1.129	0.000
14.254	14.303	90.299	0.022	-302.168	0.000	0.000	90.299	0.000	1.129	0.000
14.241	14.304	90.364	0.015	-302.177	0.000	0.000	90.364	0.000	1.128	0.000
14.236	14.305	90.275	0.003	-302.178	0.000	0.000	90.275	0.000	1.129	0.000
14.245	14.304	90.360	-0.006	-302.177	0.000	0.000	90.360	0.000	1.128	0.000
14.243	14.304	90.475	-0.012	-302.161	0.000	0.000	90.475	0.000	1.128	0.000
14.238	14.305	90.572	-0.017	-302.164	0.000	0.000	90.572	0.000	1.128	0.000
14.239	14.304	90.455	-0.013	-302.190	0.000	0.000	90.455	0.000	1.128	0.000
14.238	14.305	90.585	-0.025	-302.170	0.000	0.000	90.585	0.000	1.128	0.000
14.244	14.304	90.688	-0.026	-302.174	0.000	0.000	90.688	0.000	1.128	0.000
14.246	14.306	90.763	-0.036	-302.187	0.000	0.000	90.763	0.000	1.128	0.000
14.238	14.304	90.757	-0.022	-302.169	0.000	0.000	90.757	0.000	1.128	0.000
14.244	14.304	90.680	-0.036	-302.151	0.000	0.000	90.680	0.000	1.128	0.000
14.240	14.304	90.749	-0.029	-302.156	0.000	0.000	90.749	0.000	1.128	0.000
14.235	14.305	90.766	-0.037	-302.184	0.000	0.000	90.766	0.000	1.128	0.000
14.239	14.305	90.797	-0.035	-302.170	0.000	0.000	90.797	0.000	1.128	0.000
14.253	14.305	90.872	-0.036	-302.168	0.000	0.000	90.872	0.000	1.128	0.000
14.235	14.306	90.979	-0.038	-302.171	0.000	0.000	90.979	0.000	1.127	0.000
14.238	14.305	91.049	-0.042	-302.186	0.000	0.000	91.049	0.000	1.127	0.000
14.235	14.306	91.081	-0.045	-302.172	0.000	0.000	91.081	0.000	1.127	0.000
14.242	14.304	91.108	-0.046	-302.158	0.000	0.000	91.108	0.000	1.127	0.000
14.233	14.305	91.131	-0.048	-302.178	0.000	0.000	91.131	0.000	1.127	0.000
14.247	14.306	91.159	-0.048	-302.193	0.000	0.000	91.159	0.000	1.127	0.000
14.241	14.306	91.007	-0.049	-302.164	0.000	0.000	91.007	0.000	1.127	0.000
14.238	14.306	91.113	-0.048	-302.156	0.000	0.000	91.113	0.000	1.127	0.000
14.248	14.306	91.167	-0.046	-302.162	0.000	0.000	91.167	0.000	1.127	0.000
14.242	14.306	91.069	-0.046	-302.157	0.000	0.000	91.069	0.000	1.127	0.000
14.232	14.306	91.174	-0.050	-302.190	0.000	0.000	91.174	0.000	1.127	0.000
14.233	14.305	91.177	-0.049	-302.178	0.000	0.000	91.177	0.000	1.127	0.000
14.247	14.306	91.143	-0.049	-302.176	0.000	0.000	91.143	0.000	1.127	0.000
14.238	14.307	91.309	-0.049	-302.193	0.000	0.000	91.309	0.000	1.127	0.000
14.243	14.312	91.327	-0.029	-302.180	0.000	0.000	91.327	0.000	1.127	0.000
14.258	14.314	91.362	0.036	-302.166	0.000	0.000	91.362	0.000	1.127	0.000
14.258	14.310	91.308	0.100	-302.160	0.000	0.000	91.308	0.000	1.127	0.000
14.259	14.307	91.319	0.204	-302.136	0.000	0.000	91.319	0.000	1.127	0.000
14.258	14.302	91.366	0.267	-302.172	0.000	0.000	91.366	0.000	1.126	0.000
14.255	14.297	91.405	0.273	-302.164	0.000	0.000	91.405	0.000	1.126	0.000
14.252	14.300	91.433	0.279	-302.173	0.000	0.000	91.433	0.000	1.126	0.000
14.260	14.300	91.297	0.292	-302.148	0.000	0.000	91.297	0.000	1.126	0.000
14.256	14.298	91.395	0.308	-302.135	0.000	0.000	91.395	0.000	1.126	0.000
14.259	14.298	91.468	0.314	-302.144	0.000	0.000	91.468	0.000	1.126	0.000
14.250	14.298	91.543	0.324	-302.150	0.000	0.000	91.543	0.000	1.126	0.000
14.248	14.298	91.600	0.331	-302.157	0.000	0.000	91.600	0.000	1.125	0.000
14.257	14.297	91.670	0.339	-302.151	0.000	0.000	91.670	0.000	1.125	0.000
14.255	14.296	91.729	0.351	-302.146	0.000	0.000	91.729	0.000	1.125	0.000
14.261	14.298	91.790	0.353	-302.148	0.000	0.000	91.790	0.000	1.125	0.000
14.260	14.296	91.847	0.359	-302.155	0.000	0.000	91.847	0.000	1.125	0.000
14.246	14.296	91.927	0.366	-302.156	0.000	0.000	91.927	0.000	1.125	0.000
14.257	14.297	91.890	0.370	-302.125	0.000	0.000	91.890	0.000	1.125	0.000
14.256	14.297	91.939	0.361	-302.160	0.000	0.000	91.939	0.000	1.125	0.000
14.260	14.297	92.113	0.366	-302.143	0.000	0.000	92.113	0.000	1.124	0.000
14.260	14.297	92.081	0.364	-302.167	0.000	0.000	92.081	0.000	1.124	0.000
14.247	14.296	92.208	0.370	-302.145	0.000	0.000	92.208	0.000	1.124	0.000
14.260	14.297	92.362	0.367	-302.140	0.000	0.000	92.362	0.000	1.124	0.000
14.258	14.296	92.496	0.371	-302.155	0.000	0.000	92.496	0.000	1.123	0.000
14.253	14.297	92.459	0.370	-302.164	0.000	0.000	92.459	0.000	1.124	0.000
14.253	14.296	92.637	0.368	-302.146	0.000	0.000	92.637	0.000	1.123	0.000
14.261	14.297	92.741	0.364	-302.155	0.000	0.000	92.741	0.000	1.123	0.000
14.248	14.296	92.753	0.364	-302.129	0.000	0.000	92.753	0.000	1.123	0.000
14.254	14.297	92.927	0.370	-302.123	0.000	0.000	92.927	0.000	1.123	0.000
14.265	14.297	93.067	0.372	-302.160	0.000	0.000	93.067	0.000	1.122	0.000
14.251	14.297	93.186	0.360	-302.132	0.000	0.000	93.186	0.000	1.122	0.000
14.259	14.297	93.276	0.362	-302.153	0.000	0.000	93.276	0.000	1.122	0.000
14.254	14.296	93.362	0.368	-302.111	0.000	0.000	93.362	0.000	1.122	0.000
14.257	14.296	93.459	0.371	-302.132	0.000	0.000	93.459	0.000	1.122	0.000
14.248	14.295	93.410	0.368	-302.160	0.000	0.000	93.410	0.000	1.122	0.000
14.260	14.297	93.472	0.366	-302.145	0.000	0.000	93.472	0.000	1.122	0.000
14.255	14.296	93.641	0.364	-302.154	0.000	0.000	93.641	0.000	1.121	0.000
14.252	14.297	93.764	0.369	-302.143	0.000	0.000	93.764	0.000	1.121	0.000
14.258	14.297	93.717	0.366	-302.169	0.000	0.000	93.717	0.000	1.121	0.000
14.260	14.297	93.838	0.364	-302.151	0.000	0.000	93.838	0.000	1.121	0.000
14.248	14.298	93.750	0.361	-302.150	0.000	0.000	93.750	0.000	1.121	0.000
14.262	14.298	93.917	0.362	-302.172	0.000	0.000	93.917	0.000	1.121	0.000
14.253	14.297	93.883	0.366	-302.153	0.000	0.000	93.883	0.000	1.121	0.000
14.257	14.296	94.047	0.364	-302.155	0.000	0.000	94.047	0.000	1.120	0.000
14.252	14.297	94.009	0.369	-302.179	0.000	0.000	94.009	0.000	1.120	0.000
14.254	14.296	94.195	0.367	-302.146	0.000	0.000	94.195	0.000	1.120	0.000
14.260	14.297	94.252	0.369	-302.134	0.000	0.000	94.252	0.000	1.120	0.000
14.261	14.296	94.251	0.364	-302.145	0.000	0.000	94.251	0.000	1.120	0.000
14.248	14.297	94.412	0.369	-302.128	0.000	0.000	94.412	0.000	1.120	0.000
14.263	14.297	94.524	0.361	-302.142	0.000	0.000	94.524	0.000	1.119	0.000
14.257	14.297	94.590	0.363	-302.173	0.000	0.000	94.590	0.000	1.119	0.000
14.253	14.297	94.686	0.364	-302.149	0.000	0.000	94.686	0.000	1.119	0.000
14.251	14.296	94.600	0.367	-302.157	0.000	0.000	94.600	0.000	1.119	0.000
14.256	14.297	94.528	0.370	-302.130	0.000	0.000	94.528	0.000	1.119	0.000
14.270	14.297	94.582	0.387	-302.156	0.000	0.000	94.582	0.000	1.119	0.000
14.270	14.299	94.816	0.443	-302.139	0.000	0.000	94.816	0.000	1.119	0.000
14.277	14.297	94.997	0.605	-302.129	0.000	0.000	94.997	0.000	1.118	0.000
14.309	14.300	95.102	0.814	-302.093	0.030	10.695	94.999	0.290	1.119	303845.491
14.358	14.274	95.201	1.915	-301.939	0.091	32.110	94.274	0.869	1.118	918173.001
14.426	14.239	95.187	3.396	-301.653	0.137	47.995	93.116	1.298	1.118	1387354.287
14.458	14.202	95.312	4.458	-301.471	0.160	56.070	92.485	1.514	1.116	1628534.321
14.493	14.161	95.415	5.383	-301.289	0.182	63.858	91.748	1.722	1.114	1865472.570
14.519	14.143	95.530	5.944	-301.319	0.194	67.943	91.380	1.831	1.114	1990983.543
14.534	14.126	95.587	6.443	-301.249	0.202	70.670	91.097	1.903	1.113	2075480.602
14.559	14.106	95.665	6.860	-301.111	0.213	74.450	90.682	2.004	1.112	2194264.351
14.558	14.090	95.859	7.130	-301.237	0.217	75.773	90.697	2.037	1.111	2230261.465
14.578	14.081	96.031	7.342	-301.109	0.223	78.056	90.553	2.098	1.111	2299956.684
14.601	14.072	96.087	7.709	-301.112	0.230	80.542	90.254	2.164	1.110	2380218.914
14.634	14.055	96.072	8.263	-301.004	0.241	84.166	89.702	2.261	1.110	2501022.938
14.647	14.036	96.192	8.665	-300.865	0.247	86.455	89.471	2.321	1.109	2572802.357
14.680	14.017	96.146	9.057	-300.761	0.258	89.996	88.864	2.415	1.109	2694516.496
14.690	14.006	96.633	9.440	-300.763	0.262	91.488	89.107	2.452	1.107	2728744.310
14.716	13.999	97.020	9.717	-300.648	0.268	93.663	89.132	2.509	1.107	2791395.718
14.725	13.987	97.315	9.940	-300.574	0.272	94.991	89.202	2.542	1.106	2826259.211
14.740	13.978	97.563	10.234	-300.606	0.276	96.566	89.179	2.583	1.105	2871961.703
14.778	13.944	97.791	10.854	-300.397	0.289	101.006	88.618	2.698	1.104	3017523.063
14.828	13.918	98.034	11.595	-300.143	0.302	105.448	88.037	2.814	1.103	3166998.173
14.866	13.888	98.256	12.193	-300.041	0.313	109.327	87.510	2.914	1.101	3297880.823
14.888	13.866	98.374	12.607	-299.993	0.320	111.716	87.152	2.975	1.100	3379860.144
14.922	13.871	98.545	12.987	-299.939	0.325	113.229	87.018	3.017	1.101	3432712.570
14.943	13.845	98.874	13.260	-299.875	0.332	115.759	86.826	3.080	1.099	3511327.612
14.974	13.839	98.997	13.596	-299.851	0.337	117.607	86.562	3.129	1.099	3577746.425
15.018	13.821	99.133	14.153	-299.613	0.346	120.702	86.034	3.210	1.099	3691855.793
15.074	13.781	99.282	14.847	-299.524	0.360	125.394	85.145	3.331	1.098	3868222.534
15.121	13.729	99.605	15.661	-299.186	0.374	130.121	84.382	3.448	1.095	4038710.857
15.175	13.687	99.907	16.328	-299.116	0.387	134.494	83.643	3.558	1.093	4202224.665
15.245	13.655	100.126	17.075	-298.988	0.400	138.912	82.776	3.672	1.092	4380231.536
15.303	13.614	100.365	17.750	-298.804	0.412	143.087	81.957	3.777	1.091	4548283.723
15.356	13.589	100.432	18.255	-298.760	0.422	146.209	81.212	3.858	1.090	4686349.169
15.397	13.548	100.846	18.728	-298.680	0.431	149.575	80.731	3.938	1.088	4811301.761
15.463	13.509	101.089	19.439	-298.460	0.444	153.657	79.860	4.040	1.087	4988354.929
15.603	13.454	101.315	20.575	-298.216	0.465	160.831	78.058	4.226	1.086	5334090.386
15.764	13.377	101.508	21.634	-297.862	0.490	169.144	75.785	4.437	1.084	5765596.452
16.002	13.316	101.728	22.608	-297.648	0.519	178.688	73.020	4.691	1.085	6323419.541
16.363	13.279	102.020	23.501	-297.502	0.554	190.221	69.487	5.013	1.089	7102595.801
16.734	13.184	102.433	24.342	-297.382	0.594	202.908	65.415	5.350	1.090	8063161.369
17.053	13.095	102.632	25.036	-297.231	0.626	213.207	61.762	5.623	1.090	8996198.411
17.379	12.973	103.028	25.813	-297.135	0.660	223.944	57.937	5.894	1.088	10091193.340
17.774	12.972	103.362	26.777	-296.864	0.686	232.152	54.905	6.146	1.094	11148340.166
18.178	12.820	103.635	27.733	-296.653	0.724	243.911	50.145	6.441	1.091	12907266.407
18.572	12.716	103.638	28.581	-296.412	0.756	253.523	45.850	6.697	1.091	14839950.182
18.904	12.549	103.819	29.285	-296.406	0.788	263.143	41.561	6.918	1.086	17161462.041
19.200	12.409	104.096	29.909	-296.174	0.815	271.158	37.988	7.100	1.082	19570747.975
19.475	12.286	104.575	30.486	-296.138	0.839	278.197	34.990	7.256	1.078	22063927.945
19.742	12.174	104.982	31.137	-296.035	0.861	284.651	32.131	7.399	1.074	24950837.598
20.044	11.931	105.407	31.790	-295.849	0.894	294.248	27.560	7.567	1.063	30861286.739
20.277	11.814	105.730	32.363	-295.747	0.914	299.906	24.862	7.679	1.058	35680961.972
20.517	11.577	105.981	32.870	-295.674	0.942	308.053	20.660	7.797	1.046	46024022.295
20.778	11.469	106.235	33.449	-295.564	0.962	313.506	17.866	7.907	1.042	56540690.979
21.021	11.292	106.275	33.987	-295.515	0.986	319.993	14.211	8.007	1.034	77935829.305
21.191	11.094	106.502	34.447	-295.276	1.008	326.038	10.927	8.072	1.023	112826217.926
21.421	11.076	106.640	34.941	-295.272	1.018	328.915	9.371	8.156	1.025	141337506.665
21.650	10.903	106.924	35.449	-295.167	1.040	334.905	6.080	8.233	1.016	263997450.135
21.910	10.798	107.025	35.957	-295.051	1.058	339.673	3.289	8.319	1.012	651194295.993
22.068	10.744	107.409	36.300	-295.020	1.068	342.396	2.003	8.368	1.010	1359747540.409
22.249	10.625	107.550	36.835	-294.910	1.084	346.537	-0.421	8.419	1.004	NaN
22.446	10.660	107.896	37.240	-294.841	1.089	347.816	-0.874	8.486	1.008	NaN
22.636	10.676	108.155	37.617	-294.760	1.094	349.346	-1.573	8.549	1.011	NaN
22.823	10.667	108.303	38.080	-294.665	1.102	351.267	-2.636	8.610	1.013	NaN
22.941	10.729	108.416	38.283	-294.616	1.101	351.175	-2.465	8.654	1.018	NaN
23.084	10.622	108.688	38.651	-294.605	1.114	354.600	-4.366	8.687	1.012	NaN
23.234	10.538	108.925	39.045	-294.417	1.126	357.584	-6.040	8.723	1.008	NaN
23.448	10.428	109.202	39.613	-294.456	1.141	361.603	-8.362	8.774	1.003	NaN
23.686	10.235	109.315	40.103	-294.197	1.164	367.283	-11.971	8.817	0.992	NaN
23.924	8.859	109.527	40.557	-293.978	1.281	395.531	-31.132	8.586	0.897	NaN
24.127	6.910	109.643	41.028	-294.008	1.465	436.129	-61.374	7.946	0.753	NaN
24.286	4.057	109.882	41.360	-294.046	1.827	503.554	-118.099	6.280	0.515	NaN
24.400	3.626	110.123	41.553	-293.960	1.903	515.906	-129.181	5.944	0.476	NaN
24.540	3.574	110.143	41.991	-293.859	1.916	517.954	-131.065	5.916	0.472	NaN
24.715	3.577	110.255	42.405	-293.649	1.920	518.648	-131.599	5.938	0.473	NaN
24.879	3.597	110.502	42.745	-293.674	1.920	518.849	-131.539	5.973	0.476	NaN
25.033	3.622	110.887	43.073	-293.684	1.920	518.958	-131.256	6.010	0.479	NaN
25.120	3.639	111.081	43.298	-293.563	1.919	518.909	-131.017	6.034	0.481	NaN
25.266	3.657	111.208	43.661	-293.453	1.920	519.060	-131.031	6.066	0.483	NaN
25.396	3.675	111.482	43.834	-293.562	1.920	519.214	-130.900	6.095	0.485	NaN
25.503	3.691	111.599	44.033	-293.435	1.920	519.263	-130.830	6.120	0.487	NaN
25.664	3.713	111.747	44.491	-293.229	1.920	519.355	-130.767	6.157	0.490	NaN
25.828	3.739	111.991	44.848	-293.269	1.920	519.416	-130.580	6.197	0.493	NaN
25.984	3.758	112.191	45.241	-293.185	1.920	519.590	-130.543	6.230	0.495	NaN
26.131	3.782	112.286	45.530	-293.164	1.920	519.548	-130.408	6.268	0.498	NaN
26.277	3.807	112.493	45.924	-293.029	1.919	519.553	-130.206	6.304	0.501	NaN
26.344	3.827	112.727	46.062	-293.062	1.917	519.397	-129.826	6.328	0.503	NaN
26.470	3.841	112.740	46.381	-292.991	1.918	519.501	-129.910	6.355	0.505	NaN
26.578	3.853	112.969	46.564	-292.924	1.919	519.710	-129.877	6.376	0.507	NaN
26.639	3.869	113.015	46.557	-293.008	1.918	519.540	-129.672	6.397	0.509	NaN
26.702	3.875	113.262	46.862	-292.952	1.918	519.723	-129.596	6.408	0.509	NaN
26.800	3.886	113.453	47.139	-292.896	1.919	519.906	-129.576	6.427	0.511	NaN
26.955	3.907	113.681	47.453	-292.738	1.919	520.034	-129.468	6.462	0.514	NaN
27.083	3.924	113.879	47.638	-292.705	1.919	520.171	-129.397	6.490	0.516	NaN
27.156	3.945	114.036	47.850	-292.748	1.918	519.993	-129.075	6.515	0.518	NaN
27.303	3.958	114.164	48.217	-292.501	1.919	520.254	-129.191	6.543	0.520	NaN
27.368	3.973	114.317	48.383	-292.535	1.918	520.178	-128.966	6.563	0.521	NaN
27.460	3.986	114.452	48.538	-292.494	1.918	520.250	-128.899	6.583	0.523	NaN
27.538	3.996	114.455	48.646	-292.553	1.918	520.293	-128.936	6.601	0.524	NaN
27.582	4.006	114.602	48.687	-292.514	1.918	520.259	-128.757	6.614	0.525	NaN
27.604	4.013	114.484	48.907	-292.498	1.917	520.124	-128.749	6.623	0.526	NaN
27.398	4.005	114.554	48.934	-292.494	1.913	519.586	-128.176	6.592	0.524	NaN
25.935	3.909	114.674	49.007	-292.943	1.894	516.515	-125.196	6.339	0.507	NaN
22.088	5.610	115.024	49.023	-293.498	1.548	455.083	-71.180	6.901	0.627	NaN
16.607	12.346	115.263	50.474	-292.650	0.665	227.906	68.562	5.594	1.014	8033936.170
14.353	13.976	115.427	53.919	-291.211	0.195	69.607	111.071	1.790	1.063	1637242.052
14.144	14.203	115.494	58.770	-289.452	0.000	0.000	115.494	0.000	1.072	0.000
14.228	14.305	115.536	64.393	-287.769	0.000	0.000	115.536	0.000	1.079	0.000
14.236	14.308	115.370	69.109	-286.628	0.000	0.000	115.370	0.000	1.080	0.000
14.242	14.309	115.320	72.470	-285.854	0.000	0.000	115.320	0.000	1.080	0.000
14.234	14.308	115.283	75.046	-285.529	0.000	0.000	115.283	0.000	1.080	0.000
14.218	14.305	115.220	76.734	-285.448	0.000	0.000	115.220	0.000	1.080	0.000
14.238	14.305	115.161	77.888	-285.462	0.000	0.000	115.161	0.000	1.080	0.000
14.234	14.301	115.085	78.870	-285.249	0.000	0.000	115.085	0.000	1.080	0.000
14.230	14.307	115.094	79.665	-285.445	0.000	0.000	115.094	0.000	1.080	0.000
14.243	14.308	115.025	80.283	-285.325	0.000	0.000	115.025	0.000	1.080	0.000
14.239	14.306	115.040	80.801	-285.357	0.000	0.000	115.040	0.000	1.080	0.000
14.238	14.307	115.023	81.237	-285.269	0.000	0.000	115.023	0.000	1.080	0.000
14.238	14.308	115.036	81.631	-285.451	0.000	0.000	115.036	0.000	1.080	0.000
14.226	14.308	115.199	81.959	-285.301	0.000	0.000	115.199	0.000	1.080	0.000
14.240	14.307	115.271	82.285	-285.219	0.000	0.000	115.271	0.000	1.080	0.000
14.236	14.306	115.289	82.604	-285.223	0.000	0.000	115.289	0.000	1.080	0.000
14.250	14.307	115.279	82.855	-285.218	0.000	0.000	115.279	0.000	1.080	0.000
14.233	14.308	115.185	83.101	-285.207	0.000	0.000	115.185	0.000	1.080	0.000
14.238	14.306	114.973	83.351	-285.038	0.000	0.000	114.973	0.000	1.080	0.000
14.237	14.306	114.791	83.546	-285.102	0.000	0.000	114.791	0.000	1.081	0.000
14.249	14.308	114.783	83.731	-285.197	0.000	0.000	114.783	0.000	1.081	0.000
14.232	14.307	114.755	83.905	-285.098	0.000	0.000	114.755	0.000	1.081	0.000
14.235	14.306	114.807	84.070	-285.090	0.000	0.000	114.807	0.000	1.081	0.000
14.234	14.305	114.868	84.223	-285.180	0.000	0.000	114.868	0.000	1.080	0.000
14.234	14.305	114.744	84.359	-285.081	0.000	0.000	114.744	0.000	1.081	0.000
14.238	14.306	114.770	84.493	-285.004	0.000	0.000	114.770	0.000	1.081	0.000
14.243	14.307	114.793	84.619	-284.987	0.000	0.000	114.793	0.000	1.081	0.000
14.234	14.307	114.779	84.721	-284.980	0.000	0.000	114.779	0.000	1.081	0.000
14.246	14.306	114.739	84.846	-284.867	0.000	0.000	114.739	0.000	1.081	0.000
14.233	14.306	114.705	84.926	-284.917	0.000	0.000	114.705	0.000	1.081	0.000
14.235	14.306	114.689	85.017	-284.861	0.000	0.000	114.689	0.000	1.081	0.000
14.233	14.305	114.678	85.098	-284.896	0.000	0.000	114.678	0.000	1.081	0.000
14.229	14.305	114.652	85.179	-284.887	0.000	0.000	114.652	0.000	1.081	0.000
14.239	14.305	114.574	85.245	-284.891	0.000	0.000	114.574	0.000	1.081	0.000
14.236	14.306	114.479	85.301	-284.947	0.000	0.000	114.479	0.000	1.081	0.000
14.231	14.306	114.432	85.353	-284.866	0.000	0.000	114.432	0.000	1.081	0.000
14.240	14.306	114.393	85.402	-284.815	0.000	0.000	114.393	0.000	1.081	0.000
14.233	14.305	114.451	85.435	-284.748	0.000	0.000	114.451	0.000	1.081	0.000
14.230	14.306	114.297	85.467	-284.721	0.000	0.000	114.297	0.000	1.082	0.000
14.235	14.306	114.263	85.495	-284.872	0.000	0.000	114.263	0.000	1.082	0.000
14.230	14.304	114.303	85.517	-284.921	0.000	0.000	114.303	0.000	1.081	0.000
14.235	14.305	114.302	85.530	-284.766	0.000	0.000	114.302	0.000	1.081	0.000
14.241	14.305	114.112	85.522	-284.908	0.000	0.000	114.112	0.000	1.082	0.000
14.226	14.304	114.172	85.529	-284.915	0.000	0.000	114.172	0.000	1.082	0.000
14.230	14.305	114.264	85.506	-284.954	0.000	0.000	114.264	0.000	1.082	0.000
14.233	14.306	114.225	85.484	-284.864	0.000	0.000	114.225	0.000	1.082	0.000
14.230	14.305	114.119	85.472	-284.851	0.000	0.000	114.119	0.000	1.082	0.000
14.230	14.305	113.874	85.430	-284.879	0.000	0.000	113.874	0.000	1.082	0.000
14.228	14.305	113.759	85.394	-285.007	0.000	0.000	113.759	0.000	1.083	0.000
14.239	14.305	113.742	85.343	-284.918	0.000	0.000	113.742	0.000	1.083	0.000
14.246	14.306	113.839	85.302	-284.858	0.000	0.000	113.839	0.000	1.082	0.000
14.232	14.305	113.885	85.257	-284.894	0.000	0.000	113.885	0.000	1.082	0.000
14.231	14.305	113.776	85.191	-284.972	0.000	0.000	113.776	0.000	1.083	0.000
14.246	14.305	113.614	85.133	-284.992	0.000	0.000	113.614	0.000	1.083	0.000
14.235	14.305	113.509	85.067	-284.859	0.000	0.000	113.509	0.000	1.083	0.000
14.234	14.305	113.458	84.998	-284.979	0.000	0.000	113.458	0.000	1.083	0.000
14.229	14.304	113.438	84.934	-284.948	0.000	0.000	113.438	0.000	1.083	0.000
